{
  "resourceType": "Bundle",
  "meta": {
    "profile": [
      "https://fhir.nhs.uk/STU3/StructureDefinition/GPConnect-StructuredRecord-Bundle-1"
    ]
  },
  "id": "AEED4157-E1D7-4AB9-B628-43F366B40274",
  "type": "collection",
  "entry": [
    {
      "resource": {
        "resourceType": "Patient",
        "id": "51dd7b16-6b44-11ed-a02d-0a58a9feac02",
        "meta": {
          "versionId": "ff01c0199a7079a6bbdc035bfc755419",
          "profile": [
            "https://fhir.nhs.uk/STU3/StructureDefinition/CareConnect-GPC-Patient-1"
          ]
        },
        "extension": [
          {
            "url": "https://fhir.nhs.uk/STU3/StructureDefinition/Extension-CareConnect-GPC-RegistrationDetails-1",
            "extension": [
              {
                "url": "registrationPeriod",
                "valuePeriod": {
                  "start": "2022-11-23"
                }
              },
              {
                "url": "registrationType",
                "valueCodeableConcept": {
                  "coding": [
                    {
                      "system": "https://fhir.nhs.uk/STU3/CodeSystem/CareConnect-RegistrationType-1",
                      "code": "R",
                      "display": "Regular"
                    }
                  ]
                }
              }
            ]
          }
        ],
        "identifier": [
          {
            "extension": [
              {
                "url": "https://fhir.nhs.uk/STU3/StructureDefinition/Extension-CareConnect-GPC-NHSNumberVerificationStatus-1",
                "valueCodeableConcept": {
                  "coding": [
                    {
                      "system": "https://fhir.nhs.uk/STU3/CodeSystem/CareConnect-NHSNumberVerificationStatus-1",
                      "code": "01",
                      "display": "Number present and verified"
                    }
                  ]
                }
              }
            ],
            "system": "https://fhir.nhs.uk/Id/nhs-number",
            "value": "9727180310"
          }
        ],
        "active": true,
        "name": [
          {
            "use": "official",
            "family": "BANG",
            "prefix": [
              "MR"
            ],
            "given": [
              "Colin",
              "Ramon"
            ]
          }
        ],
        "gender": "male",
        "birthDate": "2022-05-05",
        "address": [
          {
            "use": "home",
            "line": [
              "1 DRURY LANE",
              "NORTH SHIELDS",
              "TYNE & WEAR"
            ],
            "postalCode": "NE29 8SJ",
            "country": "GBR"
          }
        ],
        "managingOrganization": {
          "reference": "Organization/B84012"
        }
      }
    },
    {
      "resource": {
        "resourceType": "Organization",
        "id": "B84012",
        "meta": {
          "versionId": "29f8da7af7c6b1c51b9cd3f89d25006a",
          "profile": [
            "https://fhir.nhs.uk/STU3/StructureDefinition/CareConnect-GPC-Organization-1"
          ]
        },
        "identifier": [
          {
            "system": "https://fhir.nhs.uk/Id/ods-organization-code",
            "value": "B84012"
          }
        ],
        "active": true,
        "name": "Spring Hall Group Practice",
        "address": [
          {
            "use": "work",
            "line": [
              "101 Yvonne Falls"
            ],
            "city": "West Carey",
            "district": "Norfolk",
            "postalCode": "MK3 7SA",
            "country": "GBR"
          }
        ],
        "telecom": [
          {
            "system": "phone",
            "value": "+441273749184",
            "use": "work"
          },
          {
            "system": "fax",
            "value": "+441455338473",
            "use": "work"
          },
          {
            "system": "email",
            "value": "bakers.hill@medicus.health",
            "use": "work"
          }
        ]
      }
    },
    {
      "resource": {
        "resourceType": "List",
        "meta": {
          "profile": [
            "https://fhir.nhs.uk/STU3/StructureDefinition/CareConnect-GPC-List-1"
          ]
        },
        "status": "current",
        "mode": "snapshot",
        "title": "Problems",
        "code": {
          "coding": [
            {
              "display": "Problems",
              "system": "http://snomed.info/sct",
              "code": "717711000000103"
            }
          ]
        },
        "subject": {
          "reference": "Patient/51dd7b16-6b44-11ed-a02d-0a58a9feac02"
        },
        "note": [
          {
            "text": "Information not available."
          }
        ],
        "emptyReason": {
          "coding": [
            {
              "system": "https://fhir.nhs.uk/STU3/CodeSystem/CareConnect-ListEmptyReasonCode-1",
              "code": "no-content-recorded",
              "display": "No Content Recorded"
            }
          ]
        }
      }
    },
    {
      "resource": {
        "resourceType": "Practitioner",
        "id": "aebc00c2-28df-11eb-adc1-0242ac120002",
        "meta": {
          "versionId": "36304757d4fe25a6f3cc15ac99d05561",
          "profile": [
            "https://fhir.nhs.uk/STU3/StructureDefinition/CareConnect-GPC-Practitioner-1"
          ]
        },
        "active": true,
        "name": [
          {
            "use": "official",
            "given": "Mohammed",
            "family":"Lee",
            "prefix":"Mr"
          }
        ]
      }
    },
    {
      "resource": {
        "resourceType": "List",
        "meta": {
          "profile": [
            "https://fhir.nhs.uk/STU3/StructureDefinition/CareConnect-GPC-List-1"
          ]
        },
        "status": "current",
        "mode": "snapshot",
        "title": "Allergies and adverse reactions",
        "code": {
          "coding": [
            {
              "display": "Allergies and adverse reactions",
              "system": "http://snomed.info/sct",
              "code": "886921000000105"
            }
          ]
        },
        "subject": {
          "reference": "Patient/51dd7b16-6b44-11ed-a02d-0a58a9feac02"
        },
        "emptyReason": {
          "coding": [
            {
              "system": "https://fhir.nhs.uk/STU3/CodeSystem/CareConnect-ListEmptyReasonCode-1",
              "code": "no-content-recorded",
              "display": "No Content Recorded"
            }
          ]
        }
      }
    },
    {
      "resource": {
        "id": "6f359d7c-4996-4c85-b2c5-af46117d1915",
        "resourceType": "List",
        "meta": {
          "profile": [
            "https://fhir.nhs.uk/STU3/StructureDefinition/CareConnect-GPC-List-1"
          ]
        },
        "status": "current",
        "mode": "snapshot",
        "title": "Ended allergies",
        "code": {
          "coding": [
            {
              "display": "Ended allergies",
              "system": "http://snomed.info/sct",
              "code": "1103671000000101"
            }
          ]
        },
        "subject": {
          "reference": "Patient/51dd7b16-6b44-11ed-a02d-0a58a9feac02"
        },
        "note": [
          {
            "text": "Information not available."
          }
        ],
        "emptyReason": {
          "coding": [
            {
              "system": "https://fhir.nhs.uk/STU3/CodeSystem/CareConnect-ListEmptyReasonCode-1",
              "code": "no-content-recorded",
              "display": "No Content Recorded"
            }
          ]
        }
      }
    },
    {
      "resource": {
        "resourceType": "List",
        "meta": {
          "profile": [
            "https://fhir.nhs.uk/STU3/StructureDefinition/CareConnect-GPC-List-1"
          ]
        },
        "status": "current",
        "mode": "snapshot",
        "title": "List of consultations",
        "code": {
          "coding": [
            {
              "display": "List of consultations",
              "system": "http://snomed.info/sct",
              "code": "1149501000000101"
            }
          ]
        },
        "subject": {
          "reference": "Patient/51dd7b16-6b44-11ed-a02d-0a58a9feac02"
        },
        "note": [
          {
            "text": "Information not available."
          }
        ],
        "emptyReason": {
          "coding": [
            {
              "system": "https://fhir.nhs.uk/STU3/CodeSystem/CareConnect-ListEmptyReasonCode-1",
              "code": "no-content-recorded",
              "display": "No Content Recorded"
            }
          ]
        }
      }
    },
    {
      "resource": {
        "resourceType": "List",
        "meta": {
          "profile": [
            "https://fhir.nhs.uk/STU3/StructureDefinition/CareConnect-GPC-List-1"
          ]
        },
        "status": "current",
        "mode": "snapshot",
        "title": "Immunisations",
        "code": {
          "coding": [
            {
              "display": "Immunisations",
              "system": "http://snomed.info/sct",
              "code": "1102181000000102"
            }
          ]
        },
        "subject": {
          "reference": "Patient/51dd7b16-6b44-11ed-a02d-0a58a9feac02"
        },
        "emptyReason": {
          "coding": [
            {
              "system": "https://fhir.nhs.uk/STU3/CodeSystem/CareConnect-ListEmptyReasonCode-1",
              "code": "no-content-recorded",
              "display": "No Content Recorded"
            }
          ]
        }

      }
    },
    {
      "resource": {
        "id": "e5f0c5d4-37f0-4b51-bd25-4296590080e4",
        "resourceType": "List",
        "meta": {
          "profile": [
            "https://fhir.nhs.uk/STU3/StructureDefinition/CareConnect-GPC-List-1"
          ]
        },
        "status": "current",
        "mode": "snapshot",
        "title": "Uncategorised data",
        "code": {
          "coding": [
            {
              "display": "Miscellaneous records",
              "system": "http://snomed.info/sct",
              "code": "826501000000100"
            }
          ]
        },
        "subject": {
          "reference": "Patient/51dd7b16-6b44-11ed-a02d-0a58a9feac02"
        },
        "note": [
          {
            "text": "Information not available."
          }
        ],
        "contained": [
          {
            "resourceType": "Observation",
            "id": "B38DF435-D8E5-4D02-8161-55A71E37F684",
            "meta": {
              "profile": [
                "https://fhir.nhs.uk/STU3/StructureDefinition/CareConnect-GPC-Observation-1"
              ]
            },
            "identifier": [
              {
                "system": "https://medicus.health",
                "value": "B38DF435-D8E5-4D02-8161-55A71E37F684"
              }
            ],
            "status": "final",
            "code": {
              "coding": [
                {
                  "system": "http://read.info/readv2",
                  "code": "12C..00",
                  "display": "FH: Cardiovascular disease",
                  "userSelected": true
                },
                {
                  "extension": [
                    {
                      "url": "https://fhir.nhs.uk/STU3/StructureDefinition/Extension-coding-sctdescid",
                      "extension": [
                        {
                          "url": "descriptionId",
                          "valueId": "397693011"
                        }
                      ]
                    }
                  ],
                  "system": "http://snomed.info/sct",
                  "code": "266894000",
                  "display": "FH: Cardiovascular disease"
                }
              ]
            },
            "subject": {
              "reference": "Patient/88F14BF6-CADE-47D6-90E2-B10519BF956F"
            },
            "effectiveDateTime": "2009-11-02",
            "issued": "2010-01-13T15:13:32.1+00:00",
            "performer": [
              {
                "reference": "Practitioner/6AB948A5-2067-4A67-AD00-60EAF13E9CAA"
              }
            ],
            "comment": "Family member : Uncle"
          }
        ],
        "entry": [
          {
            "item": {
              "reference": "#B38DF435-D8E5-4D02-8161-55A71E37F684"
            }
          }
        ]
      }
    },
    {
      "resource": {
        "resourceType": "List",
        "meta": {
          "profile": [
            "https://fhir.nhs.uk/STU3/StructureDefinition/CareConnect-GPC-List-1"
          ]
        },
        "status": "current",
        "mode": "snapshot",
        "title": "Investigations and results",
        "code": {
          "coding": [
            {
              "display": "Investigations and results",
              "system": "http://snomed.info/sct",
              "code": "887191000000108"
            }
          ]
        },
        "subject": {
          "reference": "Patient/51dd7b16-6b44-11ed-a02d-0a58a9feac02"
        },
        "note": [
          {
            "text": "Information not available."
          }
        ],
        "emptyReason": {
          "coding": [
            {
              "system": "https://fhir.nhs.uk/STU3/CodeSystem/CareConnect-ListEmptyReasonCode-1",
              "code": "no-content-recorded",
              "display": "No Content Recorded"
            }
          ]
        }
      }
    },
    {
      "resource": {
        "resourceType": "List",
        "meta": {
          "profile": [
            "https://fhir.nhs.uk/STU3/StructureDefinition/CareConnect-GPC-List-1"
          ]
        },
        "status": "current",
        "mode": "snapshot",
        "title": "Outbound referral",
        "code": {
          "coding": [
            {
              "display": "Outbound referral",
              "system": "http://snomed.info/sct",
              "code": "792931000000107"
            }
          ]
        },
        "subject": {
          "reference": "Patient/51dd7b16-6b44-11ed-a02d-0a58a9feac02"
        },
        "note": [
          {
            "text": "Information not available."
          }
        ],
        "emptyReason": {
          "coding": [
            {
              "system": "https://fhir.nhs.uk/STU3/CodeSystem/CareConnect-ListEmptyReasonCode-1",
              "code": "no-content-recorded",
              "display": "No Content Recorded"
            }
          ]
        }
      }
    },
    {
      "resource": {
        "resourceType": "List",
        "meta": {
          "profile": [
            "https://fhir.nhs.uk/STU3/StructureDefinition/CareConnect-GPC-List-1"
          ]
        },
        "status": "current",
        "mode": "snapshot",
        "title": "Patient recall administration",
        "code": {
          "coding": [
            {
              "display": "Patient recall administration",
              "system": "http://snomed.info/sct",
              "code": "714311000000108"
            }
          ]
        },
        "subject": {
          "reference": "Patient/51dd7b16-6b44-11ed-a02d-0a58a9feac02"
        },
        "note": [
          {
            "text": "Information not available."
          }
        ],
        "emptyReason": {
          "coding": [
            {
              "system": "https://fhir.nhs.uk/STU3/CodeSystem/CareConnect-ListEmptyReasonCode-1",
              "code": "no-content-recorded",
              "display": "No Content Recorded"
            }
          ]
        }
      }
    },
    {
      "resource": {
        "resourceType": "List",
        "meta": {
          "profile": [
            "https://fhir.nhs.uk/STU3/StructureDefinition/CareConnect-GPC-List-1"
          ]
        },
        "status": "current",
        "mode": "snapshot",
        "title": "Medications and medical devices",
        "code": {
          "coding": [
            {
              "display": "Medications and medical devices",
              "system": "http://snomed.info/sct",
              "code": "933361000000108"
            }
          ]
        },
        "subject": {
          "reference": "Patient/51dd7b16-6b44-11ed-a02d-0a58a9feac02"
        },
        "note": [
          {
            "text": "Information not available."
          }
        ],
        "emptyReason": {
          "coding": [
            {
              "system": "https://fhir.nhs.uk/STU3/CodeSystem/CareConnect-ListEmptyReasonCode-1",
              "code": "no-content-recorded",
              "display": "No Content Recorded"
            }
          ]
        }
      }
    }
  ]
}