{
    "resourceType": "Bundle",
    "meta": {
        "profile": [
            "https://fhir.nhs.uk/STU3/StructureDefinition/GPConnect-StructuredRecord-Bundle-1"
        ]
    },
    "type": "collection",
    "entry": [
        {
            "resource": {
                "resourceType": "Medication",
                "id": "20",
                "code": {
                    "coding": [
                        {
                            "system": "http://snomed.info/sct",
                            "code": "430127000",
                            "display": "Oral Form Oxycodone (product)"
                        }
                    ]
                }
            }
        },
        {
            "resource": {
                "resourceType":"MedicationRequest",
                "id":"D66D84C9-C073-4EDF-8C2C-F309A83C3DC7",
                "meta":{
                    "profile":[
                        "https://fhir.nhs.uk/STU3/StructureDefinition/CareConnect-GPC-MedicationRequest-1"
                    ]
                },
                "extension": [
                    {
                        "url": "https://fhir.nhs.uk/STU3/StructureDefinition/Extension-CareConnect-GPC-MedicationRepeatInformation-1",
                        "extension": [
                            {
                                "url": "numberOfRepeatPrescriptionsAllowed",
                                "valueUnsignedInt": 12
                            },
                            {
                                "url": "numberOfRepeatPrescriptionsIssued",
                                "valueUnsignedInt": 0
                            }
                        ]
                    },
                    {
                        "url": "https://fhir.nhs.uk/STU3/StructureDefinition/Extension-CareConnect-GPC-PrescriptionType-1",
                        "valueCodeableConcept": {
                            "coding": [
                                {
                                    "system": "https://fhir.nhs.uk/STU3/CodeSystem/CareConnect-PrescriptionType-1",
                                    "code": "repeat",
                                    "display": "Repeat"
                                }
                            ]
                        }
                    },
                    {
                        "url": "https://fhir.nhs.uk/STU3/StructureDefinition/Extension-CareConnect-GPC-MedicationStatusReason-1",
                        "extension": [
                            {
                                "url": "statusReason",
                                "valueCodeableConcept": {
                                    "text": "Clinical Contra-indication"
                                }
                            },
                            {
                                "url": "statusChangeDate",
                                "valueDateTime": "2010-01-18T14:33:16.397+00:00"
                            }
                        ]
                    }
                ],
                "identifier":[
                    {
                        "system":"https://fhir.nhs.uk/Id/cross-care-setting-identifier",
                        "value":"f2489066-7082-11eb-bb13-00505692d4aa"
                    }
                ],
                "groupIdentifier":{
                    "value":"M-3"
                },
                "status":"active",
                "intent":"plan",
                "medicationReference":{
                    "reference":"Medication/20"
                },
                "subject":{
                    "reference":"Patient/2"
                },
                "authoredOn":"2017-11-10T00:00:00+00:00",
                "recorder":{
                    "reference":"Practitioner/1"
                },
                "dosageInstruction":[
                    {
                        "text":"1 tablet once a day",
                        "patientInstruction":"Take in morning"
                    }
                ],
                "dispenseRequest":{
                    "validityPeriod":{
                        "start":"2017-11-10T00:00:00+00:00",
                        "end":"2018-08-15T00:00:00+01:00"
                    },
                    "quantity": {
                        "value": 100,
                        "unit": "device"
                    },
                    "expectedSupplyDuration":{
                        "value":28,
                        "unit":"day",
                        "system":"http://unitsofmeasure.org",
                        "code":"d"
                    },
                    "performer":{
                        "reference":"Organization/1"
                    }
                },
                "note": [
                    {
                        "text": "Example note text 1"
                    },
                    {
                        "text": "Example note text 2"
                    },
                    {
                        "text": "Example note text 3"
                    }
                ]
            }
        },
        {
            "resource": {
                "resourceType":"MedicationRequest",
                "id":"123",
                "meta":{
                    "profile":[
                        "https://fhir.nhs.uk/STU3/StructureDefinition/CareConnect-GPC-MedicationRequest-1"
                    ]
                },
                "extension": [
                    {
                        "url": "https://fhir.nhs.uk/STU3/StructureDefinition/Extension-CareConnect-GPC-MedicationRepeatInformation-1",
                        "extension": [
                            {
                                "url": "numberOfRepeatPrescriptionsAllowed",
                                "valueUnsignedInt": 12
                            },
                            {
                                "url": "numberOfRepeatPrescriptionsIssued",
                                "valueUnsignedInt": 0
                            }
                        ]
                    },
                    {
                        "url": "https://fhir.nhs.uk/STU3/StructureDefinition/Extension-CareConnect-GPC-PrescriptionType-1",
                        "valueCodeableConcept": {
                            "coding": [
                                {
                                    "system": "https://fhir.nhs.uk/STU3/CodeSystem/CareConnect-PrescriptionType-1",
                                    "code": "acute",
                                    "display": "Acute"
                                }
                            ]
                        }
                    },
                    {
                        "url": "https://fhir.nhs.uk/STU3/StructureDefinition/Extension-CareConnect-GPC-MedicationStatusReason-1",
                        "extension": [
                            {
                                "url": "statusReason",
                                "valueCodeableConcept": {
                                    "text": "Clinical Contra-indication"
                                }
                            },
                            {
                                "url": "statusChangeDate",
                                "valueDateTime": "2010-01-18T14:33:16.397+00:00"
                            }
                        ]
                    }
                ],
                "identifier":[
                    {
                        "system":"https://fhir.nhs.uk/Id/cross-care-setting-identifier",
                        "value":"f2489066-7082-11eb-bb13-00505692d4aa"
                    }
                ],
                "groupIdentifier":{
                    "value":"M-3"
                },
                "status":"active",
                "intent":"plan",
                "medicationReference":{
                    "reference":"Medication/20"
                },
                "subject":{
                    "reference":"Patient/2"
                },
                "authoredOn":"2017-11-10T00:00:00+00:00",
                "recorder":{
                    "reference":"Practitioner/1"
                },
                "dosageInstruction":[
                    {
                        "text":"1 tablet once a day",
                        "patientInstruction":"Take in morning"
                    }
                ],
                "dispenseRequest":{
                    "validityPeriod":{
                        "start":"2017-11-10T00:00:00+00:00",
                        "end":"2018-08-15T00:00:00+01:00"
                    },
                    "quantity": {
                        "value": 100,
                        "unit": "device"
                    },
                    "expectedSupplyDuration":{
                        "value":28,
                        "unit":"day",
                        "system":"http://unitsofmeasure.org",
                        "code":"d"
                    },
                    "performer":{
                        "reference":"Organization/1"
                    }
                },
                "note": [
                    {
                        "text": "Example note text 1"
                    },
                    {
                        "text": "Example note text 2"
                    },
                    {
                        "text": "Example note text 3"
                    }
                ]
            }
        },
        {
            "resource": {
                "resourceType":"MedicationRequest",
                "id":"789",
                "meta":{
                    "profile":[
                        "https://fhir.nhs.uk/STU3/StructureDefinition/CareConnect-GPC-MedicationRequest-1"
                    ]
                },
                "extension": [
                    {
                        "url": "https://fhir.nhs.uk/STU3/StructureDefinition/Extension-CareConnect-GPC-MedicationRepeatInformation-1",
                        "extension": [
                            {
                                "url": "numberOfRepeatPrescriptionsAllowed",
                                "valueUnsignedInt": 12
                            },
                            {
                                "url": "numberOfRepeatPrescriptionsIssued",
                                "valueUnsignedInt": 0
                            }
                        ]
                    },
                    {
                        "url": "https://fhir.nhs.uk/STU3/StructureDefinition/Extension-CareConnect-GPC-PrescriptionType-1",
                        "valueCodeableConcept": {
                            "coding": [
                                {
                                    "system": "https://fhir.nhs.uk/STU3/CodeSystem/CareConnect-PrescriptionType-1",
                                    "code": "repeat-dispensing",
                                    "display": "Repeat dispensing"
                                }
                            ]
                        }
                    },
                    {
                        "url": "https://fhir.nhs.uk/STU3/StructureDefinition/Extension-CareConnect-GPC-MedicationStatusReason-1",
                        "extension": [
                            {
                                "url": "statusReason",
                                "valueCodeableConcept": {
                                    "text": "Clinical Contra-indication"
                                }
                            },
                            {
                                "url": "statusChangeDate",
                                "valueDateTime": "2010-01-18T14:33:16.397+00:00"
                            }
                        ]
                    }
                ],
                "identifier":[
                    {
                        "system":"https://fhir.nhs.uk/Id/cross-care-setting-identifier",
                        "value":"f2489066-7082-11eb-bb13-00505692d4aa"
                    }
                ],
                "groupIdentifier":{
                    "value":"M-3"
                },
                "status":"active",
                "intent":"plan",
                "medicationReference":{
                    "reference":"Medication/20"
                },
                "subject":{
                    "reference":"Patient/2"
                },
                "authoredOn":"2017-11-10T00:00:00+00:00",
                "recorder":{
                    "reference":"Practitioner/1"
                },
                "dosageInstruction":[
                    {
                        "text":"1 tablet once a day",
                        "patientInstruction":"Take in morning"
                    }
                ],
                "dispenseRequest":{
                    "validityPeriod":{
                        "start":"2017-11-10T00:00:00+00:00",
                        "end":"2018-08-15T00:00:00+01:00"
                    },
                    "quantity": {
                        "value": 100,
                        "unit": "device"
                    },
                    "expectedSupplyDuration":{
                        "value":28,
                        "unit":"day",
                        "system":"http://unitsofmeasure.org",
                        "code":"d"
                    },
                    "performer":{
                        "reference":"Organization/1"
                    }
                },
                "note": [
                    {
                        "text": "Example note text 1"
                    },
                    {
                        "text": "Example note text 2"
                    },
                    {
                        "text": "Example note text 3"
                    }
                ]
            }
        },
        {
          "resource": {
            "resourceType": "Practitioner",
            "id": "1",
            "meta": {
              "versionId": "4749697187075864793",
              "profile": [
                "https://fhir.nhs.uk/STU3/StructureDefinition/CareConnect-GPC-Practitioner-1"
              ]
            },
            "name": [
              {
                "use": "official",
                "given": [
                  "David"
                ],
                "prefix": [
                  "Dr"
                ]
              }
            ],
            "gender": "male"
          }
        },
        {
            "resource": {
                "resourceType": "Organization",
                "id": "2",
                "name": "Health Level Seven International",
                "alias": [
                    "HL7 International"
                ],
                "telecom": [
                    {
                        "system": "phone",
                        "value": "(+1) 734-677-7777"
                    },
                    {
                        "system": "fax",
                        "value": "(+1) 734-677-6622"
                    },
                    {
                        "system": "email",
                        "value": "hq@HL7.org"
                    }
                ],
                "address": [
                    {
                        "line": [
                            "3300 Washtenaw Avenue, Suite 227"
                        ],
                        "city": "Ann Arbor",
                        "state": "MI",
                        "postalCode": "48104",
                        "country": "USA"
                    }
                ],
                "endpoint": [
                    {
                        "reference": "Endpoint/example"
                    }
                ],
                "type": [
                    {
                        "coding": [
                            {
                                "system": "https://fhir.nhs.uk/STU3/CodeSystem/GPConnect-OrganisationType-1",
                                "code": "gp-practice"
                            }
                        ],
                        "text": "GP Practice"
                    }
                ]
            }
        },
        {
            "resource": {
                "resourceType": "Organization",
                "id": "2-multiple-types",
                "name": "Health Level Seven International - multiple types",
                "alias": [
                    "HL7 International - multiple types"
                ],
                "telecom": [
                    {
                        "system": "phone",
                        "value": "(+1) 734-677-7777"
                    },
                    {
                        "system": "fax",
                        "value": "(+1) 734-677-6622"
                    },
                    {
                        "system": "email",
                        "value": "hq@HL7.org"
                    }
                ],
                "address": [
                    {
                        "line": [
                            "3300 Washtenaw Avenue, Suite 227"
                        ],
                        "city": "Ann Arbor",
                        "state": "MI",
                        "postalCode": "48104",
                        "country": "USA"
                    }
                ],
                "endpoint": [
                    {
                        "reference": "Endpoint/example"
                    }
                ],
                "type": [
                    {
                        "coding": [
                            {
                                "system": "https://fhir.nhs.uk/STU3/CodeSystem/GPConnect-OrganisationType-1",
                                "code": "gp-practice"
                            }
                        ],
                        "text": "GP Practice"
                    },
                    {
                        "coding": [
                            {
                                "system": "https://fhir.nhs.uk/STU3/CodeSystem/GPConnect-OrganisationType-1",
                                "code": "urgent-care"
                            }
                        ],
                        "text": "Urgent Care"
                    }
                ]
            }
        },
        {
            "resource": {
                "resourceType": "PractitionerRole",
                "id": "3",
                "identifier": [
                    {
                        "system": "http://www.acme.org/practitioners",
                        "value": "23"
                    }
                ],
                "active": true,
                "period": {
                    "start": "2012-01-01",
                    "end": "2012-03-31"
                },
                "practitioner": {
                    "reference": "Practitioner/1",
                    "display": "Dr Adam Careful"
                },
                "organization": {
                    "reference": "Organization/1"
                },
                "code": [
                    {
                        "coding": [
                            {
                                "system": "http://terminology.hl7.org/CodeSystem/v2-0286",
                                "code": "RP"
                            }
                        ]
                    }
                ],
                "specialty": [
                    {
                        "coding": [
                            {
                                "system": "http://snomed.info/sct",
                                "code": "408443003",
                                "display": "General medical practice"
                            }
                        ]
                    }
                ]
            }
        }
    ]
}