{
    "resourceType": "Bundle",
    "meta": {
        "profile": [
            "https://fhir.nhs.uk/STU3/StructureDefinition/GPConnect-StructuredRecord-Bundle-1"
        ]
    },
    "type": "collection",
    "entry": [
        {
            "resource": {
                "resourceType": "List",
                "title": "GP Surgery",
                "id": "consultationid1",
                "code": {
                    "coding": [
                        {
                            "system": "http://snomed.info/sct",
                            "code": "325851000000107",
                            "display": "Consultation"
                        }
                    ]
                },
                "subject": {
                    "reference": "Patient/88F14BF6-CADE-47D6-90E2-B10519BF956F"
                },
                "encounter": {
                    "reference": "Encounter/F550CC56-EF65-4934-A7B1-3DC2E02243C3"
                },
                "date": "2010-01-13T15:29:50.283+00:00",
                "orderedBy": {
                    "coding": [
                        {
                            "system": "http://hl7.org/fhir/list-order",
                            "code": "system",
                            "display": "Sorted by System"
                        }
                    ]
                },
                "entry": [
                    {
                        "item": {
                            "reference": "List/topicid1"
                        }
                    },
                    {
                        "item": {
                            "reference": "List/topicid2"
                        }
                    }
                ]
            }
        },
        {
            "resource": {
                "resourceType": "List",
                "id": "topicid1",
                "meta": {
                    "profile": [
                        "https://fhir.nhs.uk/STU3/StructureDefinition/CareConnect-GPC-List-1"
                    ]
                },
                "status": "current",
                "code": {
                    "coding": [
                        {
                            "system": "http://snomed.info/sct",
                            "code": "25851000000105",
                            "display": "Topic (EHR)"
                        }
                    ]
                },
                "subject": {
                    "reference": "Patient/88F14BF6-CADE-47D6-90E2-B10519BF956F"
                },
                "encounter": {
                    "reference": "Encounter/F550CC56-EF65-4934-A7B1-3DC2E02243C3"
                },
                "orderedBy": {
                    "coding": [
                        {
                            "system": "http://hl7.org/fhir/list-order",
                            "code": "system",
                            "display": "Sorted by System"
                        }
                    ]
                },
                "entry": [
                    {
                        "item": {
                            "reference": "List/category1"
                        }
                    }
                ]
            }
        },{
            "resource": {
                "resourceType": "List",
                "id": "topicid2",
                "meta": {
                    "profile": [
                        "https://fhir.nhs.uk/STU3/StructureDefinition/CareConnect-GPC-List-1"
                    ]
                },
                "status": "current",
                "title": "Test Title",
                "code": {
                    "coding": [
                        {
                            "system": "http://snomed.info/sct",
                            "code": "25851000000105",
                            "display": "Topic (EHR)"
                        }
                    ]
                },
                "subject": {
                    "reference": "Patient/88F14BF6-CADE-47D6-90E2-B10519BF956F"
                },
                "encounter": {
                    "reference": "Encounter/F550CC56-EF65-4934-A7B1-3DC2E02243C3"
                },
                "orderedBy": {
                    "coding": [
                        {
                            "system": "http://hl7.org/fhir/list-order",
                            "code": "system",
                            "display": "Sorted by System"
                        }
                    ]
                },
                "entry": [
                    {
                        "item": {
                            "reference": "List/category2"
                        }
                    }
                ]
            }
        },
        {
            "resource": {
                "resourceType": "List",
                "id": "category1",
                "meta": {
                    "profile": [
                        "https://fhir.nhs.uk/STU3/StructureDefinition/CareConnect-GPC-List-1"
                    ]
                },
                "status": "current",
                "mode": "snapshot",
                "title": "History",
                "code": {
                    "coding": [
                        {
                            "system": "http://snomed.info/sct",
                            "code": "24781000000107",
                            "display": "Category (EHR)"
                        }
                    ]
                },
                "subject": {
                    "reference": "Patient/88F14BF6-CADE-47D6-90E2-B10519BF956F"
                },
                "encounter": {
                    "reference": "Encounter/F550CC56-EF65-4934-A7B1-3DC2E02243C3"
                },
                "date": "2010-07-14T16:32:32.03+01:00",
                "orderedBy": {
                    "coding": [
                        {
                            "system": "http://hl7.org/fhir/list-order",
                            "code": "system",
                            "display": "Sorted by System"
                        }
                    ]
                },
                "entry": [
                    {
                        "item": {
                            "reference": "ProcedureRequest/procedurerequestid1"
                        }
                    }
                ]
            }
        },

        {
            "resource": {
                "resourceType": "ProcedureRequest",
                "id": "procedurerequestid1",
                "status": "active",
                "intent": "plan",
                "authoredOn": "2010-01-13T15:29:50.1+00:00",
                "code": {
                    "text": "test"
                }
            }
        },

        {
            "resource": {
                "resourceType": "Encounter",
                "id": "F550CC56-EF65-4934-A7B1-3DC2E02243C3",
                "meta": {
                    "profile": [
                        "https://fhir.nhs.uk/STU3/StructureDefinition/CareConnect-GPC-Encounter-1"
                    ]
                },
                "identifier": [
                    {
                        "system": "https://EMISWeb/A82038",
                        "value": "F550CC56-EF65-4934-A7B1-3DC2E02243C3"
                    }
                ],
                "status": "finished",
                "type": [
                    {
                        "text": "GP Surgery"
                    }
                ],
                "subject": {
                    "reference": "Patient/88F14BF6-CADE-47D6-90E2-B10519BF956F"
                },
                "participant": [
                    {
                        "type": [
                            {
                                "coding": [
                                    {
                                        "system": "http://hl7.org/fhir/v3/ParticipationType",
                                        "code": "PPRF",
                                        "display": "primary performer"
                                    }
                                ]
                            }
                        ],
                        "individual": {
                            "reference": "Practitioner/6D340A1B-BC15-4D4E-93CF-BBCB5B74DF73"
                        }
                    },
                    {
                        "type": [
                            {
                                "coding": [
                                    {
                                        "system": "https://fhir.nhs.uk/STU3/CodeSystem/GPConnect-ParticipantType-1",
                                        "code": "REC",
                                        "display": "recorder"
                                    }
                                ]
                            }
                        ],
                        "individual": {
                            "reference": "Practitioner/6D340A1B-BC15-4D4E-93CF-BBCB5B74DF73"
                        }
                    }
                ],
                "period": {
                    "start": "2010-01-13T15:20:00+00:00",
                    "end": "2010-01-13T16:20:00+00:00"
                },
                "location": [
                    {
                        "location": {
                            "reference": "Location/EB3994A6-5A87-4B53-A414-913137072F57"
                        }
                    }
                ],
                "serviceProvider": {
                    "reference": "Organization/5E496953-065B-41F2-9577-BE8F2FBD0757"
                }
            }
        },
        {
            "resource": {
                "resourceType": "List",
                "id": "category2",
                "meta": {
                    "profile": [
                        "https://fhir.nhs.uk/STU3/StructureDefinition/CareConnect-GPC-List-1"
                    ]
                },
                "status": "current",
                "mode": "snapshot",
                "title": "Plan",
                "code": {
                    "coding": [
                        {
                            "system": "http://snomed.info/sct",
                            "code": "24781000000107",
                            "display": "Category (EHR)"
                        }
                    ]
                },
                "subject": {
                    "reference": "Patient/88F14BF6-CADE-47D6-90E2-B10519BF956F"
                },
                "encounter": {
                    "reference": "Encounter/F550CC56-EF65-4934-A7B1-3DC2E02243C3"
                },
                "date": "2010-07-14T16:32:32.03+01:00",
                "orderedBy": {
                    "coding": [
                        {
                            "system": "http://hl7.org/fhir/list-order",
                            "code": "system",
                            "display": "Sorted by System"
                        }
                    ]
                },
                "entry": [
                    {
                        "item": {
                            "reference": "DocumentReference/documentreference1"
                        }
                    }
                ]
            }
        },
        {
            "resource": {
                "resourceType": "DocumentReference",
                "id": "documentreference1",
                "meta": {
                    "versionId": "5774557612980378259",
                    "profile": [
                        "https://fhir.nhs.uk/STU3/StructureDefinition/CareConnect-GPC-DocumentReference-1"
                    ]
                },
                "identifier": [
                    {
                        "system": "https://EMISWeb/A82038",
                        "value": "AECD4BBE-F45C-42A0-BB77-AB77BAEE3E66"
                    }
                ],
                "status": "current",
                "type": {
                    "coding": [
                        {
                            "system": "http://snomed.info/sct",
                            "code": "25611000000107",
                            "display": "Referral letter",
                            "userSelected": true
                        }
                    ],
                    "text": "Referral Letter (21-Sep-2020)"
                },
                "created": "2020-09-21",
                "indexed": "2020-09-21T14:17:59.607+01:00",
                "custodian": {
                    "reference": "Organization/6D340A1B-BC15-4D4E-93CF-BBCB5B74DF73"
                },
                "content": [
                    {
                        "attachment": {
                            "contentType": "text/richtext",
                            "title": "some title"
                        }
                    }
                ],
                "description": "for 2 week rule referral - skin",
                "author": [
                    {
                        "reference": "Organization/6D340A1B-BC15-4D4E-93CF-BBCB5B74DF73"
                    }
                ],
                "context": {
                    "practiceSetting": {
                        "coding": [
                            {
                                "display": "Practice Setting Display"
                            }
                        ],
                        "text": "Practice Setting Text"
                    }
                }
            }
        },
        {
            "resource": {
                "resourceType": "Organization",
                "id": "Organization/6D340A1B-BC15-4D4E-93CF-BBCB5B74DF73",
                "meta": {
                    "versionId": "1112974926854455048",
                    "profile": [
                        "https://fhir.nhs.uk/STU3/StructureDefinition/CareConnect-GPC-Organization-1"
                    ]
                },
                "type": [
                    {
                        "coding": [
                            {
                                "system": "https://fhir.nhs.uk/STU3/CodeSystem/GPConnect-OrganisationType-1",
                                "code": "gp-practice"
                            }
                        ],
                        "text": "GP Practice"
                    }
                ]
            }
        }
    ]
}