{
  "resourceType": "Bundle",
  "meta": {
    "profile": [
      "https://fhir.nhs.uk/STU3/StructureDefinition/GPConnect-StructuredRecord-Bundle-1"
    ]
  },
  "type": "collection",
  "entry": [
    {
      "resource": {
        "resourceType": "List",
        "title": "GP Surgery",
        "id": "consultationid1",
        "code": {
          "coding": [
            {
              "system": "http://snomed.info/sct",
              "code": "325851000000107",
              "display": "Consultation"
            }
          ]
        },
        "subject": {
          "reference": "Patient/88F14BF6-CADE-47D6-90E2-B10519BF956F"
        },
        "encounter": {
          "reference": "Encounter/F550CC56-EF65-4934-A7B1-3DC2E02243C3"
        },
        "date": "2010-01-13T15:29:50.283+00:00",
        "orderedBy": {
          "coding": [
            {
              "system": "http://hl7.org/fhir/list-order",
              "code": "system",
              "display": "Sorted by System"
            }
          ]
        },
        "entry": [
          {
            "item": {
              "reference": "List/topicid1"
            }
          }
        ]
      }
    },
    {
      "resource": {
        "resourceType": "List",
        "id": "topicid1",
        "meta": {
          "profile": [
            "https://fhir.nhs.uk/STU3/StructureDefinition/CareConnect-GPC-List-1"
          ]
        },
        "status": "current",
        "code": {
          "coding": [
            {
              "system": "http://snomed.info/sct",
              "code": "25851000000105",
              "display": "Topic (EHR)"
            }
          ]
        },
        "subject": {
          "reference": "Patient/88F14BF6-CADE-47D6-90E2-B10519BF956F"
        },
        "encounter": {
          "reference": "Encounter/F550CC56-EF65-4934-A7B1-3DC2E02243C3"
        },
        "orderedBy": {
          "coding": [
            {
              "system": "http://hl7.org/fhir/list-order",
              "code": "system",
              "display": "Sorted by System"
            }
          ]
        },
        "entry": [
          {
            "item": {
              "reference": "List/category1"
            }
          }
        ]
      }
    },
    {
      "resource": {
        "resourceType": "List",
        "id": "category1",
        "meta": {
          "profile": [
            "https://fhir.nhs.uk/STU3/StructureDefinition/CareConnect-GPC-List-1"
          ]
        },
        "status": "current",
        "mode": "snapshot",
        "title": "History",
        "code": {
          "coding": [
            {
              "system": "http://snomed.info/sct",
              "code": "24781000000107",
              "display": "Category (EHR)"
            }
          ]
        },
        "subject": {
          "reference": "Patient/88F14BF6-CADE-47D6-90E2-B10519BF956F"
        },
        "encounter": {
          "reference": "Encounter/F550CC56-EF65-4934-A7B1-3DC2E02243C3"
        },
        "date": "2010-07-14T16:32:32.03+01:00",
        "orderedBy": {
          "coding": [
            {
              "system": "http://hl7.org/fhir/list-order",
              "code": "system",
              "display": "Sorted by System"
            }
          ]
        },
        "entry": [
          {
            "item": {
              "reference": "ProcedureRequest/procedurerequestid1"
            }
          },
          {
            "item": {
              "reference": "MedicationRequest/medicationRequest1"
            }
          }
        ]
      }
    },

    {
      "resource": {
        "resourceType": "ProcedureRequest",
        "id": "procedurerequestid1",
        "status": "active",
        "intent": "plan",
        "authoredOn": "2010-01-13T15:29:50.1+00:00",
        "code": {
          "text": "test"
        }
      }
    },

    {
      "resource": {
        "resourceType": "Encounter",
        "id": "F550CC56-EF65-4934-A7B1-3DC2E02243C3",
        "meta": {
          "profile": [
            "https://fhir.nhs.uk/STU3/StructureDefinition/CareConnect-GPC-Encounter-1"
          ]
        },
        "identifier": [
          {
            "system": "https://EMISWeb/A82038",
            "value": "F550CC56-EF65-4934-A7B1-3DC2E02243C3"
          }
        ],
        "status": "finished",
        "type": [
          {
            "text": "GP Surgery"
          }
        ],
        "subject": {
          "reference": "Patient/88F14BF6-CADE-47D6-90E2-B10519BF956F"
        },
        "participant": [
          {
            "type": [
              {
                "coding": [
                  {
                    "system": "http://hl7.org/fhir/v3/ParticipationType",
                    "code": "PPRF",
                    "display": "primary performer"
                  }
                ]
              }
            ],
            "individual": {
              "reference": "Practitioner/6D340A1B-BC15-4D4E-93CF-BBCB5B74DF73"
            }
          },
          {
            "type": [
              {
                "coding": [
                  {
                    "system": "https://fhir.nhs.uk/STU3/CodeSystem/GPConnect-ParticipantType-1",
                    "code": "REC",
                    "display": "recorder"
                  }
                ]
              }
            ],
            "individual": {
              "reference": "Practitioner/6D340A1B-BC15-4D4E-93CF-BBCB5B74DF73"
            }
          }
        ],
        "period": {
          "start": "2010-01-13T15:20:00+00:00",
          "end": "2010-01-13T16:20:00+00:00"
        },
        "location": [
          {
            "location": {
              "reference": "Location/EB3994A6-5A87-4B53-A414-913137072F57"
            }
          }
        ],
        "serviceProvider": {
          "reference": "Organization/5E496953-065B-41F2-9577-BE8F2FBD0757"
        }
      }
    },
    {
      "resource": {
        "resourceType": "MedicationRequest",
        "id": "medicationRequest1",
        "meta": {
          "profile": [
            "https://fhir.nhs.uk/STU3/StructureDefinition/CareConnect-GPC-MedicationRequest-1"
          ]
        },
        "extension": [
          {
            "url": "https://fhir.nhs.uk/STU3/StructureDefinition/Extension-CareConnect-GPC-PrescriptionType-1",
            "valueCodeableConcept": {
              "coding": [
                {
                  "system": "https://fhir.nhs.uk/STU3/CodeSystem/CareConnect-PrescriptionType-1",
                  "code": "repeat-dispensing",
                  "display": "Repeat dispensing"
                }
              ]
            }
          }
        ],
        "identifier": [
          {
            "system": "https://EMISWeb/A82038",
            "value": "44AF36F0-12A9-4119-9DCA-399532CA28BE"
          }
        ],
        "basedOn": [
          {
            "reference": "MedicationRequest/B4CEEDC3-579D-4CE0-994C-30EB32686272"
          }
        ],
        "groupIdentifier": {
          "value": "b4ceedc3-579d-4ce0-994c-30eb32686272"
        },
        "status": "stopped",
        "intent": "order",
        "medicationReference": {
          "reference": "Medication/6B926BE3-6F9E-4BB5-9D61-32FB51C907C2"
        },
        "subject": {
          "reference": "Patient/2FE2854D-CF58-4AEE-8F71-257ADF74FE21"
        },
        "authoredOn": "2010-08-12T10:40:05.427+01:00",
        "recorder": {
          "reference": "Practitioner/6AB948A5-2067-4A67-AD00-60EAF13E9CAA"
        },
        "note": [
          {
            "text": "Cancellation Reason: Prescribing Error, Cancellation Date: 2010-12-07"
          }
        ],
        "dosageInstruction": [
          {
            "text": "One To Be Taken Twice A Day"
          }
        ],
        "dispenseRequest": {
          "validityPeriod": {
            "start": "2010-12-07",
            "end": "2010-12-07"
          },
          "quantity": {
            "value": 56,
            "unit": "tablet"
          },
          "expectedSupplyDuration": {
            "value": 28,
            "unit": "day",
            "system": "http://unitsofmeasure.org",
            "code": "d"
          }
        }
      }
    },
    {
      "resource": {
        "resourceType": "ProcedureRequest",
        "id": "procedurerequestid1",
        "status": "active",
        "intent": "plan",
        "authoredOn": "2010-01-13T15:29:50.1+00:00",
        "code": {
          "text": "test"
        }
      }
    },
    {
      "resource": {
        "resourceType": "Organization",
        "id": "Organization/6D340A1B-BC15-4D4E-93CF-BBCB5B74DF73",
        "meta": {
          "versionId": "1112974926854455048",
          "profile": [
            "https://fhir.nhs.uk/STU3/StructureDefinition/CareConnect-GPC-Organization-1"
          ]
        },
        "type": [
          {
            "coding": [
              {
                "system": "https://fhir.nhs.uk/STU3/CodeSystem/GPConnect-OrganisationType-1",
                "code": "gp-practice"
              }
            ],
            "text": "GP Practice"
          }
        ]
      }
    }
  ]
}