{
    "resourceType": "Bundle",
    "meta": {
        "profile": [
            "https://fhir.nhs.uk/STU3/StructureDefinition/GPConnect-StructuredRecord-Bundle-1"
        ]
    },
    "type": "collection",
    "entry": [
        {
            "resource": {
                "resourceType": "List",
                "title": "GP Surgery",
                "id": "consultationid1",
                "code": {
                    "coding": [
                        {
                            "system": "http://snomed.info/sct",
                            "code": "325851000000107",
                            "display": "Consultation"
                        }
                    ]
                },
                "subject": {
                    "reference": "Patient/88F14BF6-CADE-47D6-90E2-B10519BF956F"
                },
                "encounter": {
                    "reference": "Encounter/F550CC56-EF65-4934-A7B1-3DC2E02243C3"
                },
                "date": "2010-01-13T15:29:50.283+00:00",
                "orderedBy": {
                    "coding": [
                        {
                            "system": "http://hl7.org/fhir/list-order",
                            "code": "system",
                            "display": "Sorted by System"
                        }
                    ]
                },
                "entry": [
                    {
                        "item": {
                            "reference": "List/topicid1"
                        }
                    }
                ]
            }
        },
        {
            "resource": {
                "resourceType": "List",
                "id": "topicid1",
                "meta": {
                    "profile": [
                        "https://fhir.nhs.uk/STU3/StructureDefinition/CareConnect-GPC-List-1"
                    ]
                },
                "status": "current",
                "title": "Endometriosis of uterus",
                "code": {
                    "coding": [
                        {
                            "system": "http://snomed.info/sct",
                            "code": "25851000000105",
                            "display": "Topic (EHR)"
                        }
                    ]
                },
                "subject": {
                    "reference": "Patient/88F14BF6-CADE-47D6-90E2-B10519BF956F"
                },
                "encounter": {
                    "reference": "Encounter/F550CC56-EF65-4934-A7B1-3DC2E02243C3"
                },
                "orderedBy": {
                    "coding": [
                        {
                            "system": "http://hl7.org/fhir/list-order",
                            "code": "system",
                            "display": "Sorted by System"
                        }
                    ]
                },
                "entry": [
                    {
                        "item": {
                            "reference": "ProcedureRequest/procedurerequestid1"
                        }
                    }
                ]
            }
        },
        {
            "resource": {
                "resourceType": "ProcedureRequest",
                "id": "procedurerequestid1",
                "status": "active",
                "intent": "plan",
                "authoredOn": "2010-01-13T15:29:50.1+00:00",
                "code": {
                    "text": "test"
                }
            }
        },
        {
            "resource": {
                "resourceType": "Encounter",
                "id": "F550CC56-EF65-4934-A7B1-3DC2E02243C3",
                "meta": {
                    "profile": [
                        "https://fhir.nhs.uk/STU3/StructureDefinition/CareConnect-GPC-Encounter-1"
                    ]
                },
                "identifier": [
                    {
                        "system": "https://EMISWeb/A82038",
                        "value": "F550CC56-EF65-4934-A7B1-3DC2E02243C3"
                    }
                ],
                "status": "finished",
                "type": [
                    {
                        "text": "GP Surgery"
                    }
                ],
                "subject": {
                    "reference": "Patient/88F14BF6-CADE-47D6-90E2-B10519BF956F"
                },
                "participant": [
                    {
                        "type": [
                            {
                                "coding": [
                                    {
                                        "system": "http://hl7.org/fhir/v3/ParticipationType",
                                        "code": "PPRF",
                                        "display": "primary performer"
                                    }
                                ]
                            }
                        ],
                        "individual": {
                            "reference": "Practitioner/6D340A1B-BC15-4D4E-93CF-BBCB5B74DF73"
                        }
                    },
                    {
                        "type": [
                            {
                                "coding": [
                                    {
                                        "system": "https://fhir.nhs.uk/STU3/CodeSystem/GPConnect-ParticipantType-1",
                                        "code": "REC",
                                        "display": "recorder"
                                    }
                                ]
                            }
                        ],
                        "individual": {
                            "reference": "Practitioner/6D340A1B-BC15-4D4E-93CF-BBCB5B74DF73"
                        }
                    }
                ],
                "period": {
                    "start": "2010-01-13T15:20:00+00:00",
                    "end": "2010-01-13T16:20:00+00:00"
                },
                "location": [
                    {
                        "location": {
                            "reference": "Location/EB3994A6-5A87-4B53-A414-913137072F57"
                        }
                    }
                ],
                "serviceProvider": {
                    "reference": "Organization/5E496953-065B-41F2-9577-BE8F2FBD0757"
                }
            }
        }
    ]
}