{
  "resourceType": "Bundle",
  "meta": {
    "profile": [
      "https://fhir.nhs.uk/STU3/StructureDefinition/GPConnect-StructuredRecord-Bundle-1"
    ]
  },
  "type": "collection",
  "entry": [
    {
      "resource": {
        "resourceType": "Patient",
        "id": "88F14BF6-CADE-47D6-90E2-B10519BF956F",
        "meta": {
          "versionId": "5852021019724084706",
          "profile": [
            "https://fhir.nhs.uk/STU3/StructureDefinition/CareConnect-GPC-Patient-1"
          ]
        },
        "identifier": [
          {
            "system": "https://fhir.nhs.uk/Id/nhs-number",
            "value": "9465701459"
          }
        ],
        "name": [
          {
            "use": "official",
            "family": "Nel",
            "given": [
              "Morris",
              "Chad"
            ],
            "prefix": [
              "Mr"
            ]
          }
        ],
        "gender": "male",
        "birthDate": "1999-02-25",
        "generalPractitioner": [
          {
            "reference": "Practitioner/6D340A1B-BC15-4D4E-93CF-BBCB5B74DF73"
          }
        ],
        "managingOrganization": {
          "reference": "Organization/5E496953-065B-41F2-9577-BE8F2FBD0757"
        }
      }
    },
    {
      "resource": {
        "resourceType": "Organization",
        "id": "5E496953-065B-41F2-9577-BE8F2FBD0757",
        "meta": {
          "versionId": "1112974926854455048",
          "profile": [
            "https://fhir.nhs.uk/STU3/StructureDefinition/CareConnect-GPC-Organization-1"
          ]
        },
        "extension": [
          {
            "url": "https://fhir.nhs.uk/STU3/StructureDefinition/Extension-CareConnect-GPC-MainLocation-1",
            "valueReference": {
              "reference": "Location/EB3994A6-5A87-4B53-A414-913137072F57"
            }
          }
        ],
        "identifier": [
          {
            "system": "https://fhir.nhs.uk/Id/ods-organization-code",
            "value": "A82038"
          }
        ],
        "type": [
          {
            "coding": [
              {
                "system": "https://fhir.nhs.uk/STU3/CodeSystem/GPConnect-OrganisationType-1",
                "code": "gp-practice"
              }
            ],
            "text": "GP Practice"
          }
        ],
        "name": "TEMPLE SOWERBY MEDICAL PRACTICE",
        "telecom": [
          {
            "system": "phone",
            "value": "01133800000",
            "use": "work",
            "rank": 1
          }
        ],
        "address": [
          {
            "use": "work",
            "type": "physical",
            "line": [
              "Fulford Grange",
              "Micklefield Lane",
              "Rawdon",
              "Rawdon"
            ],
            "city": "Leeds",
            "district": "Yorkshire",
            "postalCode": "LS19 6BA"
          }
        ]
      }
    },
    {
      "resource": {
        "resourceType": "Practitioner",
        "id": "6D340A1B-BC15-4D4E-93CF-BBCB5B74DF73",
        "meta": {
          "versionId": "4749697187075864793",
          "profile": [
            "https://fhir.nhs.uk/STU3/StructureDefinition/CareConnect-GPC-Practitioner-1"
          ]
        },
        "name": [
          {
            "use": "official",
            "family": "McAvenue",
            "given": [
              "David"
            ],
            "prefix": [
              "Dr"
            ]
          }
        ],
        "gender": "male"
      }
    },
    {
      "resource": {
        "resourceType": "PractitionerRole",
        "id": "1",
        "meta": {
          "versionId": "8380942905747068072",
          "profile": [
            "https://fhir.nhs.uk/STU3/StructureDefinition/CareConnect-GPC-PractitionerRole-1"
          ]
        },
        "practitioner": {
          "reference": "Practitioner/6D340A1B-BC15-4D4E-93CF-BBCB5B74DF73"
        },
        "organization": {
          "reference": "Organization/5E496953-065B-41F2-9577-BE8F2FBD0757"
        }
      }
    },
    {
      "resource": {
        "resourceType": "Practitioner",
        "id": "6AB948A5-2067-4A67-AD00-60EAF13E9CAA",
        "meta": {
          "versionId": "8001103298958225736",
          "profile": [
            "https://fhir.nhs.uk/STU3/StructureDefinition/CareConnect-GPC-Practitioner-1"
          ]
        },
        "name": [
          {
            "use": "official",
            "family": "Whitcombe",
            "given": [
              "Peter"
            ],
            "prefix": [
              "Dr"
            ]
          }
        ],
        "gender": "male"
      }
    },
    {
      "resource": {
        "resourceType": "PractitionerRole",
        "id": "2",
        "meta": {
          "versionId": "8380942905747068072",
          "profile": [
            "https://fhir.nhs.uk/STU3/StructureDefinition/CareConnect-GPC-PractitionerRole-1"
          ]
        },
        "practitioner": {
          "reference": "Practitioner/6AB948A5-2067-4A67-AD00-60EAF13E9CAA"
        },
        "organization": {
          "reference": "Organization/5E496953-065B-41F2-9577-BE8F2FBD0757"
        }
      }
    },
    {
      "resource": {
        "resourceType": "Observation",
        "id": "549EA74D-C2C1-498E-8E67-DF660977A6A1",
        "status": "final",
        "subject": {
          "reference": "Patient/88F14BF6-CADE-47D6-90E2-B10519BF956F"
        },
        "context": {
          "reference": "Encounter/9B69F6AE-F991-49EE-9FFD-028E39B38BFE"
        },
        "effectiveDateTime": "2010-01-23T13:48:00+00:00",
        "issued": "2010-01-23T14:03:54.41+00:00",
        "performer": [
          {
            "reference": "Practitioner/6D340A1B-BC15-4D4E-93CF-BBCB5B74DF73"
          }
        ],
        "comment": "This is some random free text"
      }
    },
    {
      "resource": {
        "resourceType": "ReferralRequest",
        "id": "E63AF323-919F-4D5F-9A1D-BA933BC230BC",
        "authoredOn": "2010-01-19",
        "priority": "routine",
        "description": "Referred for investigation into low blood pressure",
        "requester": {
          "agent": {
            "reference": "Practitioner/6AB948A5-2067-4A67-AD00-60EAF13E9CAA"
          }
        }
      }
    }
  ]
}
