{
    "resourceType": "Bundle",
    "meta": {
        "profile": [
            "https://fhir.nhs.uk/STU3/StructureDefinition/GPConnect-StructuredRecord-Bundle-1"
        ]
    },
    "type": "collection",
    "entry": [
        {
            "resource": {
                "resourceType": "Organization",
                "id": "6D340A1B-BC15-4D4E-93CF-BBCB5B74DF73",
                "name": "Organisation name"
            }
        },
        {
            "resource": {
                "resourceType": "Device",
                "id": "6D340A1B-BC15-4D4E-93CF-BBCB5B74DF73",
                "type": {
                    "coding": [
                        {
                            "code": "Device type code",
                            "display": "Device type display"
                        }
                    ],
                    "text": "Device type text"
                },
                "manufacturer": "Device name"
            }
        },
        {
            "resource": {
                "resourceType": "Device",
                "id": "6D340A1B-BC15-4D4E-93CF-BBCB5B74DF73",
                "type": {
                    "coding": [
                        {
                            "code": "Device type code",
                            "display": "Device type display"
                        }
                    ],
                    "text": "Device type text"
                },
                "manufacturer": "Device name"
            }
        },
        {
            "resource": {
                "resourceType": "RelatedPerson",
                "id": "f002",
                "text": {
                    "status": "generated",
                    "div": "<div xmlns=\"http://www.w3.org/1999/xhtml\">\n     Ariadne Bor-Jansma\n    </div>"
                },
                "patient": {
                    "reference": "Patient/f201"
                },
                "relationship": [
                    {
                        "coding": [
                            {
                                "system": "http://terminology.hl7.org/CodeSystem/v3-RoleCode",
                                "code": "SIGOTHR"
                            }
                        ]
                    }
                ],
                "name": [
                    {
                        "use": "usual",
                        "text": "Ariadne Bor-Jansma"
                    }
                ],
                "telecom": [
                    {
                        "system": "phone",
                        "value": "+31201234567",
                        "use": "home"
                    }
                ],
                "gender": "female",
                "birthDate": "1963",
                "period": {
                    "start": "1975"
                }
            }
        },
        {
            "resource": {
                "resourceType": "RelatedPerson",
                "id": "f003",
                "text": {
                    "status": "generated",
                    "div": "<div xmlns=\"http://www.w3.org/1999/xhtml\">\n     Ariadne Bor-Jansma\n    </div>"
                },
                "patient": {
                    "reference": "Patient/f201"
                },
                "relationship": [
                    {
                        "coding": [
                            {
                                "system": "http://terminology.hl7.org/CodeSystem/v3-RoleCode",
                                "code": "SIGOTHR"
                            }
                        ]
                    }
                ],"name": [
                    {
                        "use": "official",
                        "family": "Frank",
                        "given": [
                            "River"
                        ],
                        "prefix": [
                            "Mr"
                        ]
                    }
                ],
                "telecom": [
                    {
                        "system": "phone",
                        "value": "+31201234567",
                        "use": "home"
                    }
                ],
                "gender": "female",
                "birthDate": "1963",
                "period": {
                    "start": "1975"
                }
            }
        },
        {
            "resource": {
                "resourceType": "Practitioner",
                "id": "567B852A-5775-4AEF-BB77-504D820F11F7",
                "meta": {
                    "versionId": "1098667621224880139",
                    "profile": [
                        "https://fhir.nhs.uk/STU3/StructureDefinition/CareConnect-GPC-Practitioner-1"
                    ]
                },
                "name": [
                    {
                        "use": "official",
                        "family": "Adams",
                        "given": [
                            "James"
                        ],
                        "prefix": [
                            "Mr"
                        ]
                    }
                ],
                "gender": "unknown"
            }
        },
        {
            "resource": {
                "resourceType": "Practitioner",
                "id": "6D340A1B-BC15-4D4E-93CF-BBCB5B74DF73",
                "meta": {
                    "versionId": "1098667621224880139",
                    "profile": [
                        "https://fhir.nhs.uk/STU3/StructureDefinition/CareConnect-GPC-Practitioner-1"
                    ]
                },
                "name": [
                    {
                        "use": "official",
                        "family": "George",
                        "given": [
                            "Arthur"
                        ],
                        "prefix": [
                            "Mr"
                        ]
                    }
                ],
                "gender": "unknown"
            }
        },
        {
            "resource": {
                "resourceType": "Practitioner",
                "id": "6D340A1B-BC15-4D4E-93CF-BBCB5B74DF74",
                "meta": {
                    "versionId": "1098667621224880139",
                    "profile": [
                        "https://fhir.nhs.uk/STU3/StructureDefinition/CareConnect-GPC-Practitioner-1"
                    ]
                },
                "name": [
                    {
                        "use": "official",
                        "family": "Roberts",
                        "given": [
                            "Thomas"
                        ],
                        "prefix": [
                            "Mr"
                        ]
                    }
                ],
                "gender": "unknown"
            }
        },
        {
            "resource": {
                "resourceType": "Practitioner",
                "id": "6D340A1B-BC15-4D4E-93CF-BBCB5B74DF75",
                "meta": {
                    "versionId": "1098667621224880139",
                    "profile": [
                        "https://fhir.nhs.uk/STU3/StructureDefinition/CareConnect-GPC-Practitioner-1"
                    ]
                },
                "name": [
                    {
                        "use": "official",
                        "family": "Little",
                        "given": [
                            "Robert"
                        ],
                        "prefix": [
                            "Mr"
                        ]
                    }
                ],
                "gender": "unknown"
            }
        },
        {
            "resource": {
                "resourceType": "HealthcareService",
                "id": "6D340A1B-BC15-4D4E-93CF-BBCB5B74DF73",
                "text": {
                    "status": "generated",
                    "div": "<div xmlns=\"http://www.w3.org/1999/xhtml\">\n\t\t\t25 Dec 2013 9:15am - 9:30am: <b>Busy</b> Physiotherapy\n\t\t</div>"
                },
                "active": true,
                "providedBy": {
                    "reference": "Organization/f001",
                    "display": "Burgers University Medical Center"
                },
                "specialty": [
                    {
                        "coding": [
                            {
                                "system": "http://snomed.info/sct",
                                "code": "47505003",
                                "display": "Posttraumatic stress disorder"
                            }
                        ]
                    }
                ],
                "name": "Consulting psychologists and/or psychology services",
                "comment": "Providing Specialist psychology services to the greater Den Burg area, many years of experience dealing with PTSD issues"
            }
        },
        {
          "resource": {
            "resourceType": "Patient",
            "id": "4C903809-CADA-442E-8FA5-655E5EFEB1F5",
            "meta": {
              "versionId": "5852021019724084706",
              "profile": [
                "https://fhir.nhs.uk/STU3/StructureDefinition/CareConnect-GPC-Patient-1"
              ]
            },
            "identifier": [
              {
                "system": "https://fhir.nhs.uk/Id/nhs-number",
                "value": "9465701459"
              }
            ],
            "name": [
              {
                "use": "official",
                "family": "Nel",
                "given": [
                  "Morris",
                  "Chad"
                ],
                "prefix": [
                  "Mr"
                ]
              }
            ],
            "gender": "male",
            "birthDate": "1999-02-25",
            "generalPractitioner": [
              {
                "reference": "Practitioner/6D340A1B-BC15-4D4E-93CF-BBCB5B74DF73"
              }
            ],
            "managingOrganization": {
              "reference": "Organization/6D340A1B-BC15-4D4E-93CF-BBCB5B74DF73"
            }
          }
        },
        {
            "resource": {
                "resourceType": "DocumentReference",
                "id": "985AD546-F90A-11EB-9A03-0242AC130003",
                "type": {
                    "coding": [
                        {
                            "system": "http://snomed.info/sct",
                            "code": "25611000000107",
                            "display": "Document display text",
                            "userSelected": true
                        }
                    ],
                    "text": "Document text"
                },
                "created": "2021-01-01",
                "indexed": "2021-01-01",
                "description": "Test Document Description"
            }
        },
        {
            "resource": {
                "resourceType": "DocumentReference",
                "id": "A817A954-F915-11EB-9A03-0242AC130003",
                "type": {
                    "coding": [
                        {
                            "system": "http://snomed.info/sct",
                            "code": "25611000000107",
                            "display": "Document display text",
                            "userSelected": true
                        }
                    ]
                },
                "indexed": "2021-01-01",
                "description": "Test Document Description"
            }
        },
        {
            "resource": {
                "resourceType": "Observation",
                "id": "B1C71E38-F8E5-11EB-9A03-0242AC130003",
                "effectiveDateTime": "2021-01-01T10:30:00+00:00",
                "code": {
                    "coding": [
                        {
                            "system": "http://read.info/readv2",
                            "code": "9999.00",
                            "display": "Test Observation",
                            "userSelected": true
                        }
                    ]
                }
            }
        },
        {
            "resource": {
                "resourceType": "Observation",
                "id": "9EF75524-F8EB-11EB-9A03-0242AC130003",
                "effectivePeriod": {
                    "start": "2021-01-01T10:30:00+00:00",
                    "end": "2021-02-01T10:30:00+00:00"
                },
                "code": {
                    "coding": [
                        {
                            "system": "http://read.info/readv2",
                            "code": "9999.00",
                            "display": "Test Observation",
                            "userSelected": true
                        }
                    ]
                }
            }
        },
        {
            "resource": {
                "resourceType": "Observation",
                "id": "AA637B84-F8E8-11EB-9A03-0242AC130003",
                "code": {
                    "coding": [
                        {
                            "system": "http://read.info/readv2",
                            "code": "9999.00",
                            "display": "Test Observation",
                            "userSelected": true
                        }
                    ]
                }
            }
        },
        {
            "resource": {
                "resourceType": "ReferralRequest",
                "id": "2FB2C828-F8EC-11EB-9A03-0242AC130003",
                "authoredOn": "2021-01-01",
                "reasonCode": [
                    {
                        "coding": [
                            {
                                "system": "http://read.info/readv2",
                                "code": "9999.00",
                                "display": "Referral Request Code",
                                "userSelected": true
                            }
                        ]
                    }
                ]
            }
        },
        {
            "resource": {
                "resourceType": "ReferralRequest",
                "id": "7F089BE2-F90E-11EB-9A03-0242AC130003"
            }
        },
        {
            "resource": {
                "resourceType": "DiagnosticReport",
                "id": "DBB1223C-F90F-11EB-9A03-0242AC130003",
                "issued": "2021-01-01",
                "identifier": [
                    {
                        "system": "2.16.840.1.113883.2.1.4.5.5",
                        "value": "15/CH000039M/200010191704"
                    }
                ]
            }
        },
        {
            "resource": {
                "resourceType": "DiagnosticReport",
                "id": "E57D3DD2-F90F-11EB-9A03-0242AC130003"
            }
        },
        {
            "resource": {
                "resourceType": "MedicationRequest",
                "id": "2F40AD96-F910-11EB-9A03-0242AC130003",
                "dispenseRequest": {
                    "validityPeriod": {
                        "start": "2021-01-01T00:00:00+00:00",
                        "end": "2021-02-01T00:00:00+01:00"
                    }
                },
                "medicationReference": {
                    "reference": "Medication/9999"
                }
            }
        },
        {
            "resource": {
                "resourceType": "Medication",
                "id": "9999",
                "code": {
                    "coding": [
                        {
                            "code": "322623000",
                            "display": "Test Medication"
                        }
                    ]
                }
            }
        },
        {
            "resource": {
                "resourceType": "MedicationRequest",
                "id": "0234D9A4-F9AF-11EB-9A03-0242AC130003",
                "medicationReference": {
                    "reference": "Medication/9999"
                }
            }
        }
    ]
}