{
    "resourceType": "Bundle",
    "meta": {
        "profile": [
            "https://fhir.nhs.uk/STU3/StructureDefinition/GPConnect-StructuredRecord-Bundle-1"
        ]
    },
    "type": "collection",

    "entry":[
        {
            "resource": {
                "resourceType": "Patient",
                "id": "88F14BF6-CADE-47D6-90E2-B10519BF956F",
                "meta": {
                    "versionId": "5852021019724084706",
                    "profile": [
                        "https://fhir.nhs.uk/STU3/StructureDefinition/CareConnect-GPC-Patient-1"
                    ]
                },
                "extension": [
                    {
                        "url": "https://fhir.nhs.uk/STU3/StructureDefinition/Extension-CareConnect-GPC-RegistrationDetails-1",
                        "extension": [
                            {
                                "url": "preferredBranchSurgery",
                                "valueReference": {
                                    "reference": "Location/EB3994A6-5A87-4B53-A414-913137072F57"
                                }
                            }
                        ]
                    }
                ],
                "identifier": [
                    {
                        "extension": [
                            {
                                "url": "https://fhir.nhs.uk/STU3/StructureDefinition/Extension-CareConnect-GPC-NHSNumberVerificationStatus-1",
                                "valueCodeableConcept": {
                                    "coding": [
                                        {
                                            "system": "https://fhir.nhs.uk/STU3/CodeSystem/CareConnect-NHSNumberVerificationStatus-1",
                                            "code": "01",
                                            "display": "Number present and verified"
                                        }
                                    ],
                                    "text": "Number present and verified"
                                }
                            }
                        ],
                        "system": "https://fhir.nhs.uk/Id/nhs-number",
                        "value": "1234567890"
                    }
                ],
                "name": [
                    {
                        "use": "official",
                        "family": "Nel",
                        "given": [
                            "Morris",
                            "Chad"
                        ],
                        "prefix": [
                            "Mr"
                        ]
                    },
                    {
                        "use": "old",
                        "family": "Pwtestpatient"
                    }
                ],
                "gender": "male",
                "birthDate": "1999-02-25",
                "address": [
                    {
                        "use": "home",
                        "type": "physical",
                        "line": [
                            "Field Farm Cottage",
                            "Chapelfield Road",
                            "Goxhill"
                        ],
                        "city": "Barrow-Upon-Humber",
                        "district": "S Humberside",
                        "postalCode": "DN19 7NF"
                    }
                ],
                "generalPractitioner": [
                    {
                        "reference": "Practitioner/6D340A1B-BC15-4D4E-93CF-BBCB5B74DF73"
                    }
                ],
                "managingOrganization": {
                    "reference": "Organization/5E496953-065B-41F2-9577-BE8F2FBD0757"
                }
            }
        },
        {
            "resource": {
                "resourceType": "Organization",
                "id": "5E496953-065B-41F2-9577-BE8F2FBD0757",
                "meta": {
                    "versionId": "1112974926854455048",
                    "profile": [
                        "https://fhir.nhs.uk/STU3/StructureDefinition/CareConnect-GPC-Organization-1"
                    ]
                },
                "extension": [
                    {
                        "url": "https://fhir.nhs.uk/STU3/StructureDefinition/Extension-CareConnect-GPC-MainLocation-1",
                        "valueReference": {
                            "reference": "Location/EB3994A6-5A87-4B53-A414-913137072F57"
                        }
                    }
                ],
                "identifier": [
                    {
                        "system": "https://fhir.nhs.uk/Id/ods-organization-code",
                        "value": "A82038"
                    }
                ],
                "type": [
                    {
                        "coding": [
                            {
                                "system": "https://fhir.nhs.uk/STU3/CodeSystem/GPConnect-OrganisationType-1",
                                "code": "gp-practice"
                            }
                        ],
                        "text": "GP Practice"
                    }
                ],
                "name": "TEMPLE SOWERBY MEDICAL PRACTICE",
                "telecom": [
                    {
                        "system": "phone",
                        "value": "01133800000",
                        "use": "work",
                        "rank": 1
                    }
                ],
                "address": [
                    {
                        "use": "work",
                        "type": "physical",
                        "line": [
                            "Fulford Grange",
                            "Micklefield Lane",
                            "Rawdon",
                            "Rawdon"
                        ],
                        "city": "Leeds",
                        "district": "Yorkshire",
                        "postalCode": "LS19 6BA"
                    }
                ]
            }
        },
        {
            "resource": {
                "resourceType": "Practitioner",
                "id": "6D340A1B-BC15-4D4E-93CF-BBCB5B74DF73",
                "meta": {
                    "versionId": "4749697187075864793",
                    "profile": [
                        "https://fhir.nhs.uk/STU3/StructureDefinition/CareConnect-GPC-Practitioner-1"
                    ]
                },
                "name": [
                    {
                        "use": "official",
                        "family": "McAvenue",
                        "given": [
                            "David"
                        ],
                        "prefix": [
                            "Dr"
                        ]
                    }
                ],
                "gender": "male"
            }
        },
        {
            "resource": {
                "resourceType": "List",
                "meta": {
                    "profile": [
                        "https://fhir.nhs.uk/STU3/StructureDefinition/CareConnect-GPC-List-1"
                    ]
                },
                "extension": [
                    {
                        "url": "https://fhir.nhs.uk/STU3/StructureDefinition/Extension-CareConnect-GPC-ClinicalSetting-1",
                        "valueCodeableConcept": {
                            "coding": [
                                {
                                    "system": "http://snomed.info/sct",
                                    "code": "1060971000000108",
                                    "display": "General practice service"
                                }
                            ]
                        }
                    },
                    {
                        "url": "https://fhir.nhs.uk/STU3/StructureDefinition/Extension-CareConnect-GPC-ListWarningCode-1",
                        "valueCode": "confidential-items"
                    },
                    {
                        "url": "https://fhir.nhs.uk/STU3/StructureDefinition/Extension-CareConnect-GPC-ListWarningCode-1",
                        "valueCode": "data-in-transit"
                    }
                ],
                "status": "current",
                "mode": "snapshot",
                "title": "List of consultations",
                "code": {
                    "coding": [
                        {
                            "system": "http://snomed.info/sct",
                            "code": "1149501000000101",
                            "display": "List of consultations"
                        }
                    ]
                },
                "subject": {
                    "reference": "Patient/88F14BF6-CADE-47D6-90E2-B10519BF956F"
                },
                "date": "2020-10-26T13:08:47.605+00:00",
                "orderedBy": {
                    "coding": [
                        {
                            "system": "http://hl7.org/fhir/list-order",
                            "code": "event-date",
                            "display": "Sorted by Event Date"
                        }
                    ]
                },
                "note": [
                    {
                        "text": "Items excluded due to confidentiality and/or patient preferences. Patient record transfer from previous GP practice not yet complete; information recorded before 23-Jun-2010 may be missing."
                    }
                ],
                "entry": [
                    {
                        "item": {
                            "reference": "Encounter/DBF5776F-8A86-477C-AB98-57182A9B40FD"
                        }
                    }
                ]
            }
        },
        {
            "resource": {
                "resourceType": "Encounter",
                "id": "DBF5776F-8A86-477C-AB98-57182A9B40FD",
                "meta": {
                    "profile": [
                        "https://fhir.nhs.uk/STU3/StructureDefinition/CareConnect-GPC-Encounter-1"
                    ]
                },
                "identifier": [
                    {
                        "system": "https://EMISWeb/A82038",
                        "value": "DBF5776F-8A86-477C-AB98-57182A9B40FD"
                    }
                ],
                "status": "finished",
                "type": [
                    {
                        "text": "GP Surgery",
                        "coding": [
                            {
                                "system":"http://snomed.info/sct",
                                "code":"25741000000100",
                                "display":"Third Party Consultation"
                            }
                        ]
                    }
                ],
                "subject": {
                    "reference": "Patient/88F14BF6-CADE-47D6-90E2-B10519BF956F"
                },
                "participant": [
                    {
                        "type": [
                            {
                                "coding": [
                                    {
                                        "system": "http://hl7.org/fhir/v3/ParticipationType",
                                        "code": "PPRF",
                                        "display": "primary performer"
                                    }
                                ]
                            }
                        ],
                        "individual": {
                            "reference": "Practitioner/6D340A1B-BC15-4D4E-93CF-BBCB5B74DF73"
                        }
                    },
                    {
                        "type": [
                            {
                                "coding": [
                                    {
                                        "system": "https://fhir.nhs.uk/STU3/CodeSystem/GPConnect-ParticipantType-1",
                                        "code": "REC",
                                        "display": "recorder"
                                    }
                                ]
                            }
                        ],
                        "individual": {
                            "reference": "Practitioner/6D340A1B-BC15-4D4E-93CF-BBCB5B74DF73"
                        }
                    }
                ],
                "period": {
                    "start": "2010-07-14T18:07:00+01:00"
                },
                "location": [
                    {
                        "location": {
                            "reference": "Location/EB3994A6-5A87-4B53-A414-913137072F57"
                        }
                    }
                ],
                "serviceProvider": {
                    "reference": "Organization/5E496953-065B-41F2-9577-BE8F2FBD0757"
                }
            }
        },
        {
            "resource": {
                "resourceType": "Observation",
                "id": "549EA74D-C2C1-498E-8E67-DF660977A6A1",
                "meta": {
                    "profile": [
                        "https://fhir.nhs.uk/STU3/StructureDefinition/CareConnect-GPC-Observation-1"
                    ]
                },
                "identifier": [
                    {
                        "system": "https://EMISWeb/A82038",
                        "value": "549EA74D-C2C1-498E-8E67-DF660977A6A1"
                    }
                ],
                "status": "final",
                "code": {
                    "coding": [
                        {
                            "system": "http://snomed.info/sct",
                            "code": "37331000000100",
                            "display": "Comment note"
                        }
                    ]
                },
                "subject": {
                    "reference": "Patient/88F14BF6-CADE-47D6-90E2-B10519BF956F"
                },
                "context": {
                    "reference": "Encounter/9B69F6AE-F991-49EE-9FFD-028E39B38BFE"
                },
                "effectivePeriod": {
                    "start": "2010-01-13"
                },
                "issued": "2010-01-23T14:03:54.41+00:00",
                "performer": [
                    {
                        "reference": "Practitioner/6D340A1B-BC15-4D4E-93CF-BBCB5B74DF73"
                    }
                ],
                "comment": "This is some random free text"
            }
        }
    ]
}
