{
  "resourceType": "Bundle",
  "meta": {
    "profile": [
      "https://fhir.nhs.uk/STU3/StructureDefinition/GPConnect-StructuredRecord-Bundle-1"
    ]
  },
  "type": "collection",
  "entry": [
    {
      "resource": {
        "resourceType": "AllergyIntolerance",
        "id": "29",
        "meta": {
          "profile": [
            "https://fhir.nhs.uk/STU3/StructureDefinition/CareConnect-GPC-AllergyIntolerance-1"
          ]
        },
        "identifier": [
          {
            "system": "https://fhir.nhs.uk/Id/cross-care-setting-identifier",
            "value": "cb3e5db9-5867-11eb-a7e5-00505692d4aa"
          }
        ],
        "clinicalStatus": "active",
        "verificationStatus": "unconfirmed",
        "category": [
          "environment"
        ],
        "code": {
          "coding": [
            {
              "extension": [
                {
                  "url": "https://fhir.hl7.org.uk/STU3/StructureDefinition/Extension-coding-sctdescid",
                  "extension": [
                    {
                      "url": "descriptionId",
                      "valueId": "148720012"
                    }
                  ]
                }
              ],
              "system": "http://snomed.info/sct",
              "code": "89707004",
              "display": "Sesame oil (substance)"
            }
          ]
        },
        "patient": {
          "reference": "Patient/2"
        },
        "onsetDateTime": "1963-07-27T12:00:00+01:00",
        "assertedDate": "1963-07-27T12:00:00+01:00",
        "recorder": {
          "reference": "Practitioner/1"
        },
        "reaction": [
          {
            "manifestation": [
              {
                "coding": [
                  {
                    "extension": [
                      {
                        "url": "https://fhir.hl7.org.uk/STU3/StructureDefinition/Extension-coding-sctdescid",
                        "extension": [
                          {
                            "url": "descriptionId",
                            "valueId": "344917018"
                          }
                        ]
                      }
                    ],
                    "system": "http://snomed.info/sct",
                    "code": "230145002",
                    "display": "Difficulty breathing"
                  }
                ]
              }
            ],
            "severity": "severe"
          }
        ]
      }
    },
    {
      "resource": {
        "resourceType": "List",
        "meta": {
          "profile": [
            "https://fhir.nhs.uk/STU3/StructureDefinition/CareConnect-GPC-List-1"
          ]
        },
        "status": "current",
        "mode": "snapshot",
        "title": "Allergies and adverse reactions",
        "code": {
          "coding": [
            {
              "system": "http://snomed.info/sct",
              "code": "886921000000105",
              "display": "Active Allergies"
            }
          ]
        },
        "subject": {
          "identifier": {
            "system": "https://fhir.nhs.uk/Id/nhs-number",
            "value": "9690937286"
          }
        },
        "entry": [
          {
            "item": {
              "reference": "AllergyIntolerance/29"
            }
          }
        ]
      }
    },
    {
      "resource": {
        "resourceType": "List",
        "meta": {
          "profile": [
            "https://fhir.nhs.uk/STU3/StructureDefinition/CareConnect-GPC-List-1"
          ]
        },
        "contained": [
          {
            "resourceType": "AllergyIntolerance",
            "id": "28",
            "meta": {
              "profile": [
                "https://fhir.nhs.uk/STU3/StructureDefinition/CareConnect-GPC-AllergyIntolerance-1"
              ]
            },
            "extension": [
              {
                "url": "https://fhir.nhs.uk/STU3/StructureDefinition/Extension-CareConnect-GPC-AllergyIntoleranceEnd-1",
                "extension": [
                  {
                    "url": "endDate",
                    "valueDateTime": "2016-11-01T00:00:00+00:00"
                  },
                  {
                    "url": "reasonEnded",
                    "valueString": "Desensitised to Peanuts"
                  }
                ]
              }
            ],
            "identifier": [
              {
                "system": "https://fhir.nhs.uk/Id/cross-care-setting-identifier",
                "value": "cb3e5d02-5867-11eb-a7e5-00505692d4aa"
              }
            ],
            "clinicalStatus": "resolved",
            "verificationStatus": "unconfirmed",
            "category": [
              "environment"
            ],
            "code": {
              "coding": [
                {
                  "extension": [
                    {
                      "url": "https://fhir.hl7.org.uk/STU3/StructureDefinition/Extension-coding-sctdescid",
                      "extension": [
                        {
                          "url": "descriptionId",
                          "valueId": "152306018"
                        }
                      ]
                    }
                  ],
                  "system": "http://snomed.info/sct",
                  "code": "91935009",
                  "display": "Allergy to peanuts"
                },
                {
                  "system": "http://read.info/ctv3",
                  "code": "Xa1no",
                  "display": "Peanut allergy",
                  "userSelected": true
                }
              ]
            },
            "patient": {
              "reference": "Patient/2"
            },
            "onsetDateTime": "1962-08-12T00:00:00+01:00",
            "assertedDate": "2016-11-01T00:00:00+00:00",
            "recorder": {
              "reference": "Practitioner/1"
            },
            "lastOccurrence": "2016-11-01T00:00:00+00:00",
            "reaction": [
              {
                "manifestation": [
                  {
                    "coding": [
                      {
                        "extension": [
                          {
                            "url": "https://fhir.hl7.org.uk/STU3/StructureDefinition/Extension-coding-sctdescid",
                            "extension": [
                              {
                                "url": "descriptionId",
                                "valueId": "372285017"
                              }
                            ]
                          }
                        ],
                        "system": "http://snomed.info/sct",
                        "code": "249519007",
                        "display": "Diarrhoea and vomiting"
                      }
                    ]
                  }
                ],
                "severity": "mild"
              }
            ]
          }
        ],
        "status": "current",
        "mode": "snapshot",
        "title": "Ended allergies",
        "code": {
          "coding": [
            {
              "system": "http://snomed.info/sct",
              "code": "1103671000000101",
              "display": "Ended allergies"
            }
          ]
        },
        "subject": {
          "identifier": {
            "system": "https://fhir.nhs.uk/Id/nhs-number",
            "value": "9690937286"
          }
        },
        "entry": [
          {
            "item": {
              "reference": "#28"
            }
          }
        ]
      }
    },
    {
      "resource": {
        "resourceType": "List",
        "meta": {
          "profile": [
            "https://fhir.nhs.uk/STU3/StructureDefinition/CareConnect-GPC-List-1"
          ]
        },
        "status": "current",
        "mode": "snapshot",
        "title": "Problems - linked problems not relating to the primary query",
        "code": {
          "coding": [
            {
              "system": "https://fhir.hl7.org.uk/STU3/CodeSystem/GPConnect-SecondaryListValues-1",
              "code": "problems-linked-problems-not-relating-to-the-primary-query",
              "display": "Problems - linked problems not relating to the primary query"
            }
          ]
        },
        "subject": {
          "reference": "Patient/2"
        },
        "date": "2020-12-01T00:00:00+00:00",
        "orderedBy": {
          "coding": [
            {
              "system": "http://hl7.org/fhir/list-order",
              "code": "event-date"
            }
          ]
        },
        "entry": [
          {
            "item": {
              "reference": "Condition/AllergiesProblem"
            }
          }
        ]
      }
    },
    {
      "resource": {
        "resourceType": "Condition",
        "id": "AllergiesProblem",
        "meta": {
          "profile": [
            "https://fhir.nhs.uk/STU3/StructureDefinition/CareConnect-GPC-ProblemHeader-Condition-1"
          ]
        },
        "extension": [
          {
            "url": "https://fhir.hl7.org.uk/STU3/StructureDefinition/Extension-CareConnect-ProblemSignificance-1",
            "valueCode": "major"
          },
          {
            "url": "https://fhir.hl7.org.uk/STU3/StructureDefinition/Extension-CareConnect-RelatedClinicalContent-1",
            "valueReference": {
              "reference": "AllergyIntolerance/29"
            }
          }
        ],
        "identifier": [
          {
            "system": "https://fhir.nhs.uk/Id/cross-care-setting-identifier",
            "value": "D06C0517-4D1C-11E3-A2DD-010000000161"
          }
        ],
        "clinicalStatus": "active",
        "category": [
          {
            "coding": [
              {
                "system": "http://hl7.org/fhir/condition-category",
                "code": "problem-list-item",
                "display": "Problem List Item"
              }
            ]
          }
        ],
        "code": {
          "coding": [
            {
              "system": "http://snomed.info/sct",
              "code": "231504006",
              "display": "Mixed anxiety and depressive disorder"
            }
          ],
          "text": "Anxiety with depression"
        },
        "subject": {
          "reference": "Patient/2"
        },
        "assertedDate": "2020-12-01T00:00:00+00:00",
        "asserter": {
          "reference": "Practitioner/1"
        }
      }
    },
    {
      "resource": {
        "resourceType": "List",
        "meta": {
          "profile": [
            "https://fhir.nhs.uk/STU3/StructureDefinition/CareConnect-GPC-List-1"
          ]
        },
        "extension": [
          {
            "url": "https://fhir.nhs.uk/STU3/StructureDefinition/Extension-CareConnect-GPC-ClinicalSetting-1",
            "valueCodeableConcept": {
              "coding": [
                {
                  "system": "http://snomed.info/sct",
                  "code": "1060971000000108",
                  "display": "General practice service"
                }
              ]
            }
          },
          {
            "url": "https://fhir.nhs.uk/STU3/StructureDefinition/Extension-CareConnect-GPC-ListWarningCode-1",
            "valueCode": "confidential-items"
          }
        ],
        "status": "current",
        "mode": "snapshot",
        "title": "Medications and medical devices",
        "code": {
          "coding": [
            {
              "system": "http://snomed.info/sct",
              "code": "933361000000108",
              "display": "Medications and medical devices"
            }
          ]
        },
        "subject": {
          "reference": "Patient/2",
          "identifier": {
            "system": "https://fhir.nhs.uk/Id/nhs-number",
            "value": "9690937286"
          }
        },
        "date": "2021-01-20T11:54:50+00:00",
        "orderedBy": {
          "coding": [
            {
              "system": "http://hl7.org/fhir/codesystem-list-order.html",
              "code": "event-date",
              "display": "Sorted by Event Date"
            }
          ]
        },
        "note": [
          {
            "text": "Items excluded due to confidentiality and/or patient preferences."
          }
        ],
        "entry": [
          {
            "item": {
              "reference": "MedicationStatement/1"
            }
          },
          {
            "item": {
              "reference": "MedicationStatement/9"
            }
          },
          {
            "item": {
              "reference": "MedicationStatement/10"
            }
          },
          {
            "item": {
              "reference": "MedicationStatement/11"
            }
          },
          {
            "item": {
              "reference": "MedicationStatement/12"
            }
          }
        ]
      }
    },
    {
      "resource": {
        "resourceType": "MedicationStatement",
        "id": "1",
        "meta": {
          "profile": [
            "https://fhir.nhs.uk/STU3/StructureDefinition/CareConnect-GPC-MedicationStatement-1"
          ]
        },
        "extension": [
          {
            "url": "https://fhir.nhs.uk/STU3/StructureDefinition/Extension-CareConnect-GPC-MedicationStatementLastIssueDate-1",
            "valueDateTime": "2018-08-17"
          },
          {
            "url": "https://fhir.nhs.uk/STU3/StructureDefinition/Extension-CareConnect-GPC-PrescribingAgency-1",
            "valueCodeableConcept": {
              "coding": [
                {
                  "system": "https://fhir.nhs.uk/STU3/CodeSystem/CareConnect-PrescribingAgency-1",
                  "code": "prescribed-at-gp-practice",
                  "display": "Prescribed at GP practice"
                }
              ]
            }
          },
          {
            "url": "https://fhir.hl7.org.uk/STU3/StructureDefinition/Extension-CareConnect-MedicationStatementDosageLastChanged-1",
            "valueDateTime": "2018-08-17T00:00:00+01:00"
          }
        ],
        "identifier": [
          {
            "system": "https://fhir.nhs.uk/Id/cross-care-setting-identifier",
            "value": "cb69b1f2-5867-11eb-a7e5-00505692d4aa"
          }
        ],
        "basedOn": [
          {
            "reference": "MedicationRequest/20"
          }
        ],
        "status": "active",
        "medicationReference": {
          "reference": "Medication/20"
        },
        "effectivePeriod": {
          "start": "2017-11-10T00:00:00+00:00",
          "end": "2018-09-14T00:00:00+01:00"
        },
        "dateAsserted": "2017-11-10T00:00:00+00:00",
        "subject": {
          "reference": "Patient/2"
        },
        "taken": "unk",
        "dosage": [
          {
            "text": "1 tablet once a day",
            "patientInstruction": "Take in the morning"
          }
        ]
      }
    },
    {
      "resource": {
        "resourceType": "Medication",
        "id": "20",
        "meta": {
          "profile": [
            "https://fhir.nhs.uk/STU3/StructureDefinition/CareConnect-GPC-Medication-1"
          ]
        },
        "code": {
          "coding": [
            {
              "system": "http://snomed.info/sct",
              "code": "9751511000001104",
              "display": "Sertraline 100mg tablets"
            },
            {
              "system": "https://fhir.hl7.org.uk/Id/multilex-drug-codes",
              "code": "06157009",
              "display": "Sertraline 100mg tablets",
              "userSelected": true
            }
          ]
        }
      }
    },
    {
      "resource": {
        "resourceType": "MedicationRequest",
        "id": "20",
        "meta": {
          "profile": [
            "https://fhir.nhs.uk/STU3/StructureDefinition/CareConnect-GPC-MedicationRequest-1"
          ]
        },
        "extension": [
          {
            "url": "https://fhir.nhs.uk/STU3/StructureDefinition/Extension-CareConnect-GPC-MedicationRepeatInformation-1",
            "extension": [
              {
                "url": "numberOfRepeatPrescriptionsAllowed",
                "valuePositiveInt": 12
              },
              {
                "url": "numberOfRepeatPrescriptionsIssued",
                "valuePositiveInt": 11
              }
            ]
          },
          {
            "url": "https://fhir.nhs.uk/STU3/StructureDefinition/Extension-CareConnect-GPC-PrescriptionType-1",
            "valueCodeableConcept": {
              "coding": [
                {
                  "system": "https://fhir.nhs.uk/STU3/CodeSystem/CareConnect-PrescriptionType-1",
                  "code": "repeat",
                  "display": "Repeat"
                }
              ]
            }
          }
        ],
        "identifier": [
          {
            "system": "https://fhir.nhs.uk/Id/cross-care-setting-identifier",
            "value": "cb5c6c9e-5867-11eb-a7e5-00505692d4aa"
          }
        ],
        "groupIdentifier": {
          "value": "M-3"
        },
        "status": "active",
        "intent": "plan",
        "medicationReference": {
          "reference": "Medication/20"
        },
        "subject": {
          "reference": "Patient/2"
        },
        "authoredOn": "2017-11-10T00:00:00+00:00",
        "recorder": {
          "reference": "Practitioner/1"
        },
        "dosageInstruction": [
          {
            "text": "1 tablet once a day",
            "patientInstruction": "Take in morning"
          }
        ],
        "dispenseRequest": {
          "validityPeriod": {
            "start": "2017-11-10T00:00:00+00:00",
            "end": "2018-08-15T00:00:00+01:00"
          },
          "quantity": {
            "extension": [
              {
                "url": "https://fhir.nhs.uk/STU3/StructureDefinition/Extension-CareConnect-GPC-MedicationQuantityText-1",
                "valueString": "28"
              }
            ]
          },
          "expectedSupplyDuration": {
            "value": 28,
            "unit": "day",
            "system": "http://unitsofmeasure.org",
            "code": "d"
          },
          "performer": {
            "reference": "Organization/1"
          }
        }
      }
    },
    {
      "resource": {
        "resourceType": "MedicationRequest",
        "id": "21",
        "meta": {
          "profile": [
            "https://fhir.nhs.uk/STU3/StructureDefinition/CareConnect-GPC-MedicationRequest-1"
          ]
        },
        "extension": [
          {
            "url": "https://fhir.nhs.uk/STU3/StructureDefinition/Extension-CareConnect-GPC-PrescriptionType-1",
            "valueCodeableConcept": {
              "coding": [
                {
                  "system": "https://fhir.nhs.uk/STU3/CodeSystem/CareConnect-PrescriptionType-1",
                  "code": "repeat",
                  "display": "Repeat"
                }
              ]
            }
          }
        ],
        "identifier": [
          {
            "system": "https://fhir.nhs.uk/Id/cross-care-setting-identifier",
            "value": "cb5c6d9c-5867-11eb-a7e5-00505692d4aa"
          }
        ],
        "basedOn": [
          {
            "reference": "MedicationRequest/20"
          }
        ],
        "groupIdentifier": {
          "value": "M-3"
        },
        "status": "completed",
        "intent": "order",
        "medicationReference": {
          "reference": "Medication/20"
        },
        "subject": {
          "reference": "Patient/2"
        },
        "authoredOn": "2017-11-10T00:00:00+00:00",
        "recorder": {
          "reference": "Practitioner/1"
        },
        "dosageInstruction": [
          {
            "text": "1 tablet once a day",
            "patientInstruction": "Take in morning"
          }
        ],
        "dispenseRequest": {
          "validityPeriod": {
            "start": "2017-11-10T00:00:00+00:00",
            "end": "2017-12-08T00:00:00+00:00"
          },
          "quantity": {
            "extension": [
              {
                "url": "https://fhir.nhs.uk/STU3/StructureDefinition/Extension-CareConnect-GPC-MedicationQuantityText-1",
                "valueString": "28"
              }
            ]
          },
          "expectedSupplyDuration": {
            "value": 28,
            "unit": "day",
            "system": "http://unitsofmeasure.org",
            "code": "d"
          },
          "performer": {
            "reference": "Organization/1"
          }
        }
      }
    },
    {
      "resource": {
        "resourceType": "MedicationRequest",
        "id": "22",
        "meta": {
          "profile": [
            "https://fhir.nhs.uk/STU3/StructureDefinition/CareConnect-GPC-MedicationRequest-1"
          ]
        },
        "extension": [
          {
            "url": "https://fhir.nhs.uk/STU3/StructureDefinition/Extension-CareConnect-GPC-PrescriptionType-1",
            "valueCodeableConcept": {
              "coding": [
                {
                  "system": "https://fhir.nhs.uk/STU3/CodeSystem/CareConnect-PrescriptionType-1",
                  "code": "repeat",
                  "display": "Repeat"
                }
              ]
            }
          }
        ],
        "identifier": [
          {
            "system": "https://fhir.nhs.uk/Id/cross-care-setting-identifier",
            "value": "cb5c6e88-5867-11eb-a7e5-00505692d4aa"
          }
        ],
        "basedOn": [
          {
            "reference": "MedicationRequest/20"
          }
        ],
        "groupIdentifier": {
          "value": "M-3"
        },
        "status": "completed",
        "intent": "order",
        "medicationReference": {
          "reference": "Medication/20"
        },
        "subject": {
          "reference": "Patient/2"
        },
        "authoredOn": "2017-11-10T00:00:00+00:00",
        "recorder": {
          "reference": "Practitioner/1"
        },
        "dosageInstruction": [
          {
            "text": "1 tablet once a day",
            "patientInstruction": "Take in morning"
          }
        ],
        "dispenseRequest": {
          "validityPeriod": {
            "start": "2017-12-08T00:00:00+00:00",
            "end": "2018-01-04T00:00:00+00:00"
          },
          "quantity": {
            "extension": [
              {
                "url": "https://fhir.nhs.uk/STU3/StructureDefinition/Extension-CareConnect-GPC-MedicationQuantityText-1",
                "valueString": "28"
              }
            ]
          },
          "expectedSupplyDuration": {
            "value": 28,
            "unit": "day",
            "system": "http://unitsofmeasure.org",
            "code": "d"
          },
          "performer": {
            "reference": "Organization/1"
          }
        }
      }
    },
    {
      "resource": {
        "resourceType": "MedicationRequest",
        "id": "23",
        "meta": {
          "profile": [
            "https://fhir.nhs.uk/STU3/StructureDefinition/CareConnect-GPC-MedicationRequest-1"
          ]
        },
        "extension": [
          {
            "url": "https://fhir.nhs.uk/STU3/StructureDefinition/Extension-CareConnect-GPC-PrescriptionType-1",
            "valueCodeableConcept": {
              "coding": [
                {
                  "system": "https://fhir.nhs.uk/STU3/CodeSystem/CareConnect-PrescriptionType-1",
                  "code": "repeat",
                  "display": "Repeat"
                }
              ]
            }
          }
        ],
        "identifier": [
          {
            "system": "https://fhir.nhs.uk/Id/cross-care-setting-identifier",
            "value": "cb5c6fc0-5867-11eb-a7e5-00505692d4aa"
          }
        ],
        "basedOn": [
          {
            "reference": "MedicationRequest/20"
          }
        ],
        "groupIdentifier": {
          "value": "M-3"
        },
        "status": "completed",
        "intent": "order",
        "medicationReference": {
          "reference": "Medication/20"
        },
        "subject": {
          "reference": "Patient/2"
        },
        "authoredOn": "2017-11-10T00:00:00+00:00",
        "recorder": {
          "reference": "Practitioner/1"
        },
        "dosageInstruction": [
          {
            "text": "1 tablet once a day",
            "patientInstruction": "Take in morning"
          }
        ],
        "dispenseRequest": {
          "validityPeriod": {
            "start": "2018-01-05T00:00:00+00:00",
            "end": "2018-02-01T00:00:00+00:00"
          },
          "quantity": {
            "extension": [
              {
                "url": "https://fhir.nhs.uk/STU3/StructureDefinition/Extension-CareConnect-GPC-MedicationQuantityText-1",
                "valueString": "28"
              }
            ]
          },
          "expectedSupplyDuration": {
            "value": 28,
            "unit": "day",
            "system": "http://unitsofmeasure.org",
            "code": "d"
          },
          "performer": {
            "reference": "Organization/1"
          }
        }
      }
    },
    {
      "resource": {
        "resourceType": "MedicationRequest",
        "id": "24",
        "meta": {
          "profile": [
            "https://fhir.nhs.uk/STU3/StructureDefinition/CareConnect-GPC-MedicationRequest-1"
          ]
        },
        "extension": [
          {
            "url": "https://fhir.nhs.uk/STU3/StructureDefinition/Extension-CareConnect-GPC-PrescriptionType-1",
            "valueCodeableConcept": {
              "coding": [
                {
                  "system": "https://fhir.nhs.uk/STU3/CodeSystem/CareConnect-PrescriptionType-1",
                  "code": "repeat",
                  "display": "Repeat"
                }
              ]
            }
          }
        ],
        "identifier": [
          {
            "system": "https://fhir.nhs.uk/Id/cross-care-setting-identifier",
            "value": "cb5c70b0-5867-11eb-a7e5-00505692d4aa"
          }
        ],
        "basedOn": [
          {
            "reference": "MedicationRequest/20"
          }
        ],
        "groupIdentifier": {
          "value": "M-3"
        },
        "status": "completed",
        "intent": "order",
        "medicationReference": {
          "reference": "Medication/20"
        },
        "subject": {
          "reference": "Patient/2"
        },
        "authoredOn": "2017-11-10T00:00:00+00:00",
        "recorder": {
          "reference": "Practitioner/1"
        },
        "dosageInstruction": [
          {
            "text": "1 tablet once a day",
            "patientInstruction": "Take in morning"
          }
        ],
        "dispenseRequest": {
          "validityPeriod": {
            "start": "2018-02-02T00:00:00+00:00",
            "end": "2018-03-01T00:00:00+00:00"
          },
          "quantity": {
            "extension": [
              {
                "url": "https://fhir.nhs.uk/STU3/StructureDefinition/Extension-CareConnect-GPC-MedicationQuantityText-1",
                "valueString": "28"
              }
            ]
          },
          "expectedSupplyDuration": {
            "value": 28,
            "unit": "day",
            "system": "http://unitsofmeasure.org",
            "code": "d"
          },
          "performer": {
            "reference": "Organization/1"
          }
        }
      }
    },
    {
      "resource": {
        "resourceType": "MedicationRequest",
        "id": "25",
        "meta": {
          "profile": [
            "https://fhir.nhs.uk/STU3/StructureDefinition/CareConnect-GPC-MedicationRequest-1"
          ]
        },
        "extension": [
          {
            "url": "https://fhir.nhs.uk/STU3/StructureDefinition/Extension-CareConnect-GPC-PrescriptionType-1",
            "valueCodeableConcept": {
              "coding": [
                {
                  "system": "https://fhir.nhs.uk/STU3/CodeSystem/CareConnect-PrescriptionType-1",
                  "code": "repeat",
                  "display": "Repeat"
                }
              ]
            }
          }
        ],
        "identifier": [
          {
            "system": "https://fhir.nhs.uk/Id/cross-care-setting-identifier",
            "value": "cb5c718f-5867-11eb-a7e5-00505692d4aa"
          }
        ],
        "basedOn": [
          {
            "reference": "MedicationRequest/20"
          }
        ],
        "groupIdentifier": {
          "value": "M-3"
        },
        "status": "completed",
        "intent": "order",
        "medicationReference": {
          "reference": "Medication/20"
        },
        "subject": {
          "reference": "Patient/2"
        },
        "authoredOn": "2017-11-10T00:00:00+00:00",
        "recorder": {
          "reference": "Practitioner/1"
        },
        "dosageInstruction": [
          {
            "text": "1 tablet once a day",
            "patientInstruction": "Take in morning"
          }
        ],
        "dispenseRequest": {
          "validityPeriod": {
            "start": "2018-03-02T00:00:00+00:00",
            "end": "2018-03-29T00:00:00+01:00"
          },
          "quantity": {
            "extension": [
              {
                "url": "https://fhir.nhs.uk/STU3/StructureDefinition/Extension-CareConnect-GPC-MedicationQuantityText-1",
                "valueString": "28"
              }
            ]
          },
          "expectedSupplyDuration": {
            "value": 28,
            "unit": "day",
            "system": "http://unitsofmeasure.org",
            "code": "d"
          },
          "performer": {
            "reference": "Organization/1"
          }
        }
      }
    },
    {
      "resource": {
        "resourceType": "MedicationRequest",
        "id": "26",
        "meta": {
          "profile": [
            "https://fhir.nhs.uk/STU3/StructureDefinition/CareConnect-GPC-MedicationRequest-1"
          ]
        },
        "extension": [
          {
            "url": "https://fhir.nhs.uk/STU3/StructureDefinition/Extension-CareConnect-GPC-PrescriptionType-1",
            "valueCodeableConcept": {
              "coding": [
                {
                  "system": "https://fhir.nhs.uk/STU3/CodeSystem/CareConnect-PrescriptionType-1",
                  "code": "repeat",
                  "display": "Repeat"
                }
              ]
            }
          }
        ],
        "identifier": [
          {
            "system": "https://fhir.nhs.uk/Id/cross-care-setting-identifier",
            "value": "cb5c726d-5867-11eb-a7e5-00505692d4aa"
          }
        ],
        "basedOn": [
          {
            "reference": "MedicationRequest/20"
          }
        ],
        "groupIdentifier": {
          "value": "M-3"
        },
        "status": "completed",
        "intent": "order",
        "medicationReference": {
          "reference": "Medication/20"
        },
        "subject": {
          "reference": "Patient/2"
        },
        "authoredOn": "2017-11-10T00:00:00+00:00",
        "recorder": {
          "reference": "Practitioner/1"
        },
        "dosageInstruction": [
          {
            "text": "1 tablet once a day",
            "patientInstruction": "Take in morning"
          }
        ],
        "dispenseRequest": {
          "validityPeriod": {
            "start": "2018-03-30T00:00:00+01:00",
            "end": "2018-04-26T00:00:00+01:00"
          },
          "quantity": {
            "extension": [
              {
                "url": "https://fhir.nhs.uk/STU3/StructureDefinition/Extension-CareConnect-GPC-MedicationQuantityText-1",
                "valueString": "28"
              }
            ]
          },
          "expectedSupplyDuration": {
            "value": 28,
            "unit": "day",
            "system": "http://unitsofmeasure.org",
            "code": "d"
          },
          "performer": {
            "reference": "Organization/1"
          }
        }
      }
    },
    {
      "resource": {
        "resourceType": "MedicationRequest",
        "id": "27",
        "meta": {
          "profile": [
            "https://fhir.nhs.uk/STU3/StructureDefinition/CareConnect-GPC-MedicationRequest-1"
          ]
        },
        "extension": [
          {
            "url": "https://fhir.nhs.uk/STU3/StructureDefinition/Extension-CareConnect-GPC-PrescriptionType-1",
            "valueCodeableConcept": {
              "coding": [
                {
                  "system": "https://fhir.nhs.uk/STU3/CodeSystem/CareConnect-PrescriptionType-1",
                  "code": "repeat",
                  "display": "Repeat"
                }
              ]
            }
          }
        ],
        "identifier": [
          {
            "system": "https://fhir.nhs.uk/Id/cross-care-setting-identifier",
            "value": "cb5c72fc-5867-11eb-a7e5-00505692d4aa"
          }
        ],
        "basedOn": [
          {
            "reference": "MedicationRequest/20"
          }
        ],
        "groupIdentifier": {
          "value": "M-3"
        },
        "status": "completed",
        "intent": "order",
        "medicationReference": {
          "reference": "Medication/20"
        },
        "subject": {
          "reference": "Patient/2"
        },
        "authoredOn": "2017-11-10T00:00:00+00:00",
        "recorder": {
          "reference": "Practitioner/1"
        },
        "dosageInstruction": [
          {
            "text": "1 tablet once a day",
            "patientInstruction": "Take in morning"
          }
        ],
        "dispenseRequest": {
          "validityPeriod": {
            "start": "2018-04-27T00:00:00+01:00",
            "end": "2018-05-24T00:00:00+01:00"
          },
          "quantity": {
            "extension": [
              {
                "url": "https://fhir.nhs.uk/STU3/StructureDefinition/Extension-CareConnect-GPC-MedicationQuantityText-1",
                "valueString": "28"
              }
            ]
          },
          "expectedSupplyDuration": {
            "value": 28,
            "unit": "day",
            "system": "http://unitsofmeasure.org",
            "code": "d"
          },
          "performer": {
            "reference": "Organization/1"
          }
        }
      }
    },
    {
      "resource": {
        "resourceType": "MedicationRequest",
        "id": "28",
        "meta": {
          "profile": [
            "https://fhir.nhs.uk/STU3/StructureDefinition/CareConnect-GPC-MedicationRequest-1"
          ]
        },
        "extension": [
          {
            "url": "https://fhir.nhs.uk/STU3/StructureDefinition/Extension-CareConnect-GPC-PrescriptionType-1",
            "valueCodeableConcept": {
              "coding": [
                {
                  "system": "https://fhir.nhs.uk/STU3/CodeSystem/CareConnect-PrescriptionType-1",
                  "code": "repeat",
                  "display": "Repeat"
                }
              ]
            }
          }
        ],
        "identifier": [
          {
            "system": "https://fhir.nhs.uk/Id/cross-care-setting-identifier",
            "value": "cb5c737d-5867-11eb-a7e5-00505692d4aa"
          }
        ],
        "basedOn": [
          {
            "reference": "MedicationRequest/20"
          }
        ],
        "groupIdentifier": {
          "value": "M-3"
        },
        "status": "completed",
        "intent": "order",
        "medicationReference": {
          "reference": "Medication/20"
        },
        "subject": {
          "reference": "Patient/2"
        },
        "authoredOn": "2017-11-10T00:00:00+00:00",
        "recorder": {
          "reference": "Practitioner/1"
        },
        "dosageInstruction": [
          {
            "text": "1 tablet once a day",
            "patientInstruction": "Take in morning"
          }
        ],
        "dispenseRequest": {
          "validityPeriod": {
            "start": "2018-05-25T00:00:00+01:00",
            "end": "2018-06-21T00:00:00+01:00"
          },
          "quantity": {
            "extension": [
              {
                "url": "https://fhir.nhs.uk/STU3/StructureDefinition/Extension-CareConnect-GPC-MedicationQuantityText-1",
                "valueString": "28"
              }
            ]
          },
          "expectedSupplyDuration": {
            "value": 28,
            "unit": "day",
            "system": "http://unitsofmeasure.org",
            "code": "d"
          },
          "performer": {
            "reference": "Organization/1"
          }
        }
      }
    },
    {
      "resource": {
        "resourceType": "MedicationRequest",
        "id": "29",
        "meta": {
          "profile": [
            "https://fhir.nhs.uk/STU3/StructureDefinition/CareConnect-GPC-MedicationRequest-1"
          ]
        },
        "extension": [
          {
            "url": "https://fhir.nhs.uk/STU3/StructureDefinition/Extension-CareConnect-GPC-PrescriptionType-1",
            "valueCodeableConcept": {
              "coding": [
                {
                  "system": "https://fhir.nhs.uk/STU3/CodeSystem/CareConnect-PrescriptionType-1",
                  "code": "repeat",
                  "display": "Repeat"
                }
              ]
            }
          }
        ],
        "identifier": [
          {
            "system": "https://fhir.nhs.uk/Id/cross-care-setting-identifier",
            "value": "cb5c73fe-5867-11eb-a7e5-00505692d4aa"
          }
        ],
        "basedOn": [
          {
            "reference": "MedicationRequest/20"
          }
        ],
        "groupIdentifier": {
          "value": "M-3"
        },
        "status": "completed",
        "intent": "order",
        "medicationReference": {
          "reference": "Medication/20"
        },
        "subject": {
          "reference": "Patient/2"
        },
        "authoredOn": "2017-11-10T00:00:00+00:00",
        "recorder": {
          "reference": "Practitioner/1"
        },
        "dosageInstruction": [
          {
            "text": "1 tablet once a day",
            "patientInstruction": "Take in morning"
          }
        ],
        "dispenseRequest": {
          "validityPeriod": {
            "start": "2018-06-22T00:00:00+01:00",
            "end": "2018-07-19T00:00:00+01:00"
          },
          "quantity": {
            "extension": [
              {
                "url": "https://fhir.nhs.uk/STU3/StructureDefinition/Extension-CareConnect-GPC-MedicationQuantityText-1",
                "valueString": "28"
              }
            ]
          },
          "expectedSupplyDuration": {
            "value": 28,
            "unit": "day",
            "system": "http://unitsofmeasure.org",
            "code": "d"
          },
          "performer": {
            "reference": "Organization/1"
          }
        }
      }
    },
    {
      "resource": {
        "resourceType": "MedicationRequest",
        "id": "30",
        "meta": {
          "profile": [
            "https://fhir.nhs.uk/STU3/StructureDefinition/CareConnect-GPC-MedicationRequest-1"
          ]
        },
        "extension": [
          {
            "url": "https://fhir.nhs.uk/STU3/StructureDefinition/Extension-CareConnect-GPC-PrescriptionType-1",
            "valueCodeableConcept": {
              "coding": [
                {
                  "system": "https://fhir.nhs.uk/STU3/CodeSystem/CareConnect-PrescriptionType-1",
                  "code": "repeat",
                  "display": "Repeat"
                }
              ]
            }
          }
        ],
        "identifier": [
          {
            "system": "https://fhir.nhs.uk/Id/cross-care-setting-identifier",
            "value": "cb5c747b-5867-11eb-a7e5-00505692d4aa"
          }
        ],
        "basedOn": [
          {
            "reference": "MedicationRequest/20"
          }
        ],
        "groupIdentifier": {
          "value": "M-3"
        },
        "status": "completed",
        "intent": "order",
        "medicationReference": {
          "reference": "Medication/20"
        },
        "subject": {
          "reference": "Patient/2"
        },
        "authoredOn": "2017-11-10T00:00:00+00:00",
        "recorder": {
          "reference": "Practitioner/1"
        },
        "dosageInstruction": [
          {
            "text": "1 tablet once a day",
            "patientInstruction": "Take in morning"
          }
        ],
        "dispenseRequest": {
          "validityPeriod": {
            "start": "2018-07-20T00:00:00+01:00",
            "end": "2018-08-16T00:00:00+01:00"
          },
          "quantity": {
            "extension": [
              {
                "url": "https://fhir.nhs.uk/STU3/StructureDefinition/Extension-CareConnect-GPC-MedicationQuantityText-1",
                "valueString": "28"
              }
            ]
          },
          "expectedSupplyDuration": {
            "value": 28,
            "unit": "day",
            "system": "http://unitsofmeasure.org",
            "code": "d"
          },
          "performer": {
            "reference": "Organization/1"
          }
        }
      }
    },
    {
      "resource": {
        "resourceType": "MedicationRequest",
        "id": "31",
        "meta": {
          "profile": [
            "https://fhir.nhs.uk/STU3/StructureDefinition/CareConnect-GPC-MedicationRequest-1"
          ]
        },
        "extension": [
          {
            "url": "https://fhir.nhs.uk/STU3/StructureDefinition/Extension-CareConnect-GPC-PrescriptionType-1",
            "valueCodeableConcept": {
              "coding": [
                {
                  "system": "https://fhir.nhs.uk/STU3/CodeSystem/CareConnect-PrescriptionType-1",
                  "code": "repeat",
                  "display": "Repeat"
                }
              ]
            }
          }
        ],
        "identifier": [
          {
            "system": "https://fhir.nhs.uk/Id/cross-care-setting-identifier",
            "value": "cb5c753f-5867-11eb-a7e5-00505692d4aa"
          }
        ],
        "basedOn": [
          {
            "reference": "MedicationRequest/20"
          }
        ],
        "groupIdentifier": {
          "value": "M-3"
        },
        "status": "completed",
        "intent": "order",
        "medicationReference": {
          "reference": "Medication/20"
        },
        "subject": {
          "reference": "Patient/2"
        },
        "authoredOn": "2017-11-10T00:00:00+00:00",
        "recorder": {
          "reference": "Practitioner/1"
        },
        "dosageInstruction": [
          {
            "text": "1 tablet once a day",
            "patientInstruction": "Take in morning"
          }
        ],
        "dispenseRequest": {
          "validityPeriod": {
            "start": "2018-08-15T00:00:00+01:00",
            "end": "2018-09-13T00:00:00+01:00"
          },
          "quantity": {
            "extension": [
              {
                "url": "https://fhir.nhs.uk/STU3/StructureDefinition/Extension-CareConnect-GPC-MedicationQuantityText-1",
                "valueString": "28"
              }
            ]
          },
          "expectedSupplyDuration": {
            "value": 28,
            "unit": "day",
            "system": "http://unitsofmeasure.org",
            "code": "d"
          },
          "performer": {
            "reference": "Organization/1"
          }
        }
      }
    },
    {
      "resource": {
        "resourceType": "MedicationStatement",
        "id": "9",
        "meta": {
          "profile": [
            "https://fhir.nhs.uk/STU3/StructureDefinition/CareConnect-GPC-MedicationStatement-1"
          ]
        },
        "extension": [
          {
            "url": "https://fhir.nhs.uk/STU3/StructureDefinition/Extension-CareConnect-GPC-MedicationStatementLastIssueDate-1",
            "valueDateTime": "2018-08-29"
          },
          {
            "url": "https://fhir.nhs.uk/STU3/StructureDefinition/Extension-CareConnect-GPC-PrescribingAgency-1",
            "valueCodeableConcept": {
              "coding": [
                {
                  "system": "https://fhir.nhs.uk/STU3/CodeSystem/CareConnect-PrescribingAgency-1",
                  "code": "prescribed-at-gp-practice",
                  "display": "Prescribed at GP practice"
                }
              ]
            }
          },
          {
            "url": "https://fhir.hl7.org.uk/STU3/StructureDefinition/Extension-CareConnect-MedicationStatementDosageLastChanged-1",
            "valueDateTime": "2018-08-29T00:00:00+01:00"
          }
        ],
        "identifier": [
          {
            "system": "https://fhir.nhs.uk/Id/cross-care-setting-identifier",
            "value": "cb69b783-5867-11eb-a7e5-00505692d4aa"
          }
        ],
        "basedOn": [
          {
            "reference": "MedicationRequest/32"
          }
        ],
        "status": "active",
        "medicationReference": {
          "reference": "Medication/21"
        },
        "effectivePeriod": {
          "start": "2017-11-22T00:00:00+00:00",
          "end": "2018-09-26T00:00:00+01:00"
        },
        "dateAsserted": "2017-11-22T00:00:00+00:00",
        "subject": {
          "reference": "Patient/2"
        },
        "taken": "unk",
        "dosage": [
          {
            "text": "2 tablets a day",
            "patientInstruction": "With evening meal"
          }
        ]
      }
    },
    {
      "resource": {
        "resourceType": "Medication",
        "id": "21",
        "meta": {
          "profile": [
            "https://fhir.nhs.uk/STU3/StructureDefinition/CareConnect-GPC-Medication-1"
          ]
        },
        "code": {
          "coding": [
            {
              "system": "http://snomed.info/sct",
              "code": "411533003",
              "display": "Metformin 2G Modified-Release tablets"
            },
            {
              "system": "https://fhir.hl7.org.uk/Id/multilex-drug-codes",
              "code": "16967001",
              "display": "Metformin 1g modified release tablets",
              "userSelected": true
            }
          ]
        }
      }
    },
    {
      "resource": {
        "resourceType": "MedicationRequest",
        "id": "32",
        "meta": {
          "profile": [
            "https://fhir.nhs.uk/STU3/StructureDefinition/CareConnect-GPC-MedicationRequest-1"
          ]
        },
        "extension": [
          {
            "url": "https://fhir.nhs.uk/STU3/StructureDefinition/Extension-CareConnect-GPC-MedicationRepeatInformation-1",
            "extension": [
              {
                "url": "numberOfRepeatPrescriptionsAllowed",
                "valuePositiveInt": 12
              },
              {
                "url": "numberOfRepeatPrescriptionsIssued",
                "valuePositiveInt": 1
              }
            ]
          },
          {
            "url": "https://fhir.nhs.uk/STU3/StructureDefinition/Extension-CareConnect-GPC-PrescriptionType-1",
            "valueCodeableConcept": {
              "coding": [
                {
                  "system": "https://fhir.nhs.uk/STU3/CodeSystem/CareConnect-PrescriptionType-1",
                  "code": "repeat-dispensing",
                  "display": "Repeat dispensing"
                }
              ]
            }
          }
        ],
        "identifier": [
          {
            "system": "https://fhir.nhs.uk/Id/cross-care-setting-identifier",
            "value": "cb5c75c9-5867-11eb-a7e5-00505692d4aa"
          }
        ],
        "groupIdentifier": {
          "value": "M-2a"
        },
        "status": "active",
        "intent": "plan",
        "medicationReference": {
          "reference": "Medication/21"
        },
        "subject": {
          "reference": "Patient/2"
        },
        "authoredOn": "2017-11-22T00:00:00+00:00",
        "recorder": {
          "reference": "Practitioner/1"
        },
        "dosageInstruction": [
          {
            "text": "2 tablets a day",
            "patientInstruction": "With evening meal"
          }
        ],
        "dispenseRequest": {
          "validityPeriod": {
            "start": "2017-11-22T00:00:00+00:00",
            "end": "2018-12-27T00:00:00+00:00"
          },
          "quantity": {
            "extension": [
              {
                "url": "https://fhir.nhs.uk/STU3/StructureDefinition/Extension-CareConnect-GPC-MedicationQuantityText-1",
                "valueString": "56"
              }
            ]
          },
          "expectedSupplyDuration": {
            "value": 28,
            "unit": "day",
            "system": "http://unitsofmeasure.org",
            "code": "d"
          },
          "performer": {
            "reference": "Organization/1"
          }
        }
      }
    },
    {
      "resource": {
        "resourceType": "MedicationRequest",
        "id": "33",
        "meta": {
          "profile": [
            "https://fhir.nhs.uk/STU3/StructureDefinition/CareConnect-GPC-MedicationRequest-1"
          ]
        },
        "extension": [
          {
            "url": "https://fhir.nhs.uk/STU3/StructureDefinition/Extension-CareConnect-GPC-PrescriptionType-1",
            "valueCodeableConcept": {
              "coding": [
                {
                  "system": "https://fhir.nhs.uk/STU3/CodeSystem/CareConnect-PrescriptionType-1",
                  "code": "repeat-dispensing",
                  "display": "Repeat dispensing"
                }
              ]
            }
          }
        ],
        "identifier": [
          {
            "system": "https://fhir.nhs.uk/Id/cross-care-setting-identifier",
            "value": "cb5c765c-5867-11eb-a7e5-00505692d4aa"
          }
        ],
        "basedOn": [
          {
            "reference": "MedicationRequest/32"
          }
        ],
        "groupIdentifier": {
          "value": "M-2a"
        },
        "status": "completed",
        "intent": "order",
        "medicationReference": {
          "reference": "Medication/21"
        },
        "subject": {
          "reference": "Patient/2"
        },
        "authoredOn": "2017-11-22T00:00:00+00:00",
        "recorder": {
          "reference": "Practitioner/1"
        },
        "dosageInstruction": [
          {
            "text": "2 tablets a day",
            "patientInstruction": "With evening meal"
          }
        ],
        "dispenseRequest": {
          "validityPeriod": {
            "start": "2017-11-22T00:00:00+00:00",
            "end": "2017-12-19T00:00:00+00:00"
          },
          "quantity": {
            "extension": [
              {
                "url": "https://fhir.nhs.uk/STU3/StructureDefinition/Extension-CareConnect-GPC-MedicationQuantityText-1",
                "valueString": "56"
              }
            ]
          },
          "expectedSupplyDuration": {
            "value": 28,
            "unit": "day",
            "system": "http://unitsofmeasure.org",
            "code": "d"
          },
          "performer": {
            "reference": "Organization/1"
          }
        }
      }
    },
    {
      "resource": {
        "resourceType": "MedicationRequest",
        "id": "34",
        "meta": {
          "profile": [
            "https://fhir.nhs.uk/STU3/StructureDefinition/CareConnect-GPC-MedicationRequest-1"
          ]
        },
        "extension": [
          {
            "url": "https://fhir.nhs.uk/STU3/StructureDefinition/Extension-CareConnect-GPC-PrescriptionType-1",
            "valueCodeableConcept": {
              "coding": [
                {
                  "system": "https://fhir.nhs.uk/STU3/CodeSystem/CareConnect-PrescriptionType-1",
                  "code": "repeat-dispensing",
                  "display": "Repeat dispensing"
                }
              ]
            }
          }
        ],
        "identifier": [
          {
            "system": "https://fhir.nhs.uk/Id/cross-care-setting-identifier",
            "value": "cb5c76e1-5867-11eb-a7e5-00505692d4aa"
          }
        ],
        "basedOn": [
          {
            "reference": "MedicationRequest/32"
          }
        ],
        "groupIdentifier": {
          "value": "M-2a"
        },
        "status": "completed",
        "intent": "order",
        "medicationReference": {
          "reference": "Medication/21"
        },
        "subject": {
          "reference": "Patient/2"
        },
        "authoredOn": "2017-11-22T00:00:00+00:00",
        "recorder": {
          "reference": "Practitioner/1"
        },
        "dosageInstruction": [
          {
            "text": "2 tablets a day",
            "patientInstruction": "With evening meal"
          }
        ],
        "dispenseRequest": {
          "validityPeriod": {
            "start": "2017-12-20T00:00:00+00:00",
            "end": "2018-01-16T00:00:00+00:00"
          },
          "quantity": {
            "extension": [
              {
                "url": "https://fhir.nhs.uk/STU3/StructureDefinition/Extension-CareConnect-GPC-MedicationQuantityText-1",
                "valueString": "56"
              }
            ]
          },
          "expectedSupplyDuration": {
            "value": 28,
            "unit": "day",
            "system": "http://unitsofmeasure.org",
            "code": "d"
          },
          "performer": {
            "reference": "Organization/1"
          }
        }
      }
    },
    {
      "resource": {
        "resourceType": "MedicationRequest",
        "id": "35",
        "meta": {
          "profile": [
            "https://fhir.nhs.uk/STU3/StructureDefinition/CareConnect-GPC-MedicationRequest-1"
          ]
        },
        "extension": [
          {
            "url": "https://fhir.nhs.uk/STU3/StructureDefinition/Extension-CareConnect-GPC-PrescriptionType-1",
            "valueCodeableConcept": {
              "coding": [
                {
                  "system": "https://fhir.nhs.uk/STU3/CodeSystem/CareConnect-PrescriptionType-1",
                  "code": "repeat-dispensing",
                  "display": "Repeat dispensing"
                }
              ]
            }
          }
        ],
        "identifier": [
          {
            "system": "https://fhir.nhs.uk/Id/cross-care-setting-identifier",
            "value": "cb5c7767-5867-11eb-a7e5-00505692d4aa"
          }
        ],
        "basedOn": [
          {
            "reference": "MedicationRequest/32"
          }
        ],
        "groupIdentifier": {
          "value": "M-2a"
        },
        "status": "completed",
        "intent": "order",
        "medicationReference": {
          "reference": "Medication/21"
        },
        "subject": {
          "reference": "Patient/2"
        },
        "authoredOn": "2017-11-22T00:00:00+00:00",
        "recorder": {
          "reference": "Practitioner/1"
        },
        "dosageInstruction": [
          {
            "text": "2 tablets a day",
            "patientInstruction": "With evening meal"
          }
        ],
        "dispenseRequest": {
          "validityPeriod": {
            "start": "2018-01-17T00:00:00+00:00",
            "end": "2018-02-13T00:00:00+00:00"
          },
          "quantity": {
            "extension": [
              {
                "url": "https://fhir.nhs.uk/STU3/StructureDefinition/Extension-CareConnect-GPC-MedicationQuantityText-1",
                "valueString": "56"
              }
            ]
          },
          "expectedSupplyDuration": {
            "value": 28,
            "unit": "day",
            "system": "http://unitsofmeasure.org",
            "code": "d"
          },
          "performer": {
            "reference": "Organization/1"
          }
        }
      }
    },
    {
      "resource": {
        "resourceType": "MedicationRequest",
        "id": "36",
        "meta": {
          "profile": [
            "https://fhir.nhs.uk/STU3/StructureDefinition/CareConnect-GPC-MedicationRequest-1"
          ]
        },
        "extension": [
          {
            "url": "https://fhir.nhs.uk/STU3/StructureDefinition/Extension-CareConnect-GPC-PrescriptionType-1",
            "valueCodeableConcept": {
              "coding": [
                {
                  "system": "https://fhir.nhs.uk/STU3/CodeSystem/CareConnect-PrescriptionType-1",
                  "code": "repeat-dispensing",
                  "display": "Repeat dispensing"
                }
              ]
            }
          }
        ],
        "identifier": [
          {
            "system": "https://fhir.nhs.uk/Id/cross-care-setting-identifier",
            "value": "cb5c77e8-5867-11eb-a7e5-00505692d4aa"
          }
        ],
        "basedOn": [
          {
            "reference": "MedicationRequest/32"
          }
        ],
        "groupIdentifier": {
          "value": "M-2a"
        },
        "status": "completed",
        "intent": "order",
        "medicationReference": {
          "reference": "Medication/21"
        },
        "subject": {
          "reference": "Patient/2"
        },
        "authoredOn": "2017-11-22T00:00:00+00:00",
        "recorder": {
          "reference": "Practitioner/1"
        },
        "dosageInstruction": [
          {
            "text": "2 tablets a day",
            "patientInstruction": "With evening meal"
          }
        ],
        "dispenseRequest": {
          "validityPeriod": {
            "start": "2018-02-14T00:00:00+00:00",
            "end": "2018-03-13T00:00:00+00:00"
          },
          "quantity": {
            "extension": [
              {
                "url": "https://fhir.nhs.uk/STU3/StructureDefinition/Extension-CareConnect-GPC-MedicationQuantityText-1",
                "valueString": "56"
              }
            ]
          },
          "expectedSupplyDuration": {
            "value": 28,
            "unit": "day",
            "system": "http://unitsofmeasure.org",
            "code": "d"
          },
          "performer": {
            "reference": "Organization/1"
          }
        }
      }
    },
    {
      "resource": {
        "resourceType": "MedicationRequest",
        "id": "37",
        "meta": {
          "profile": [
            "https://fhir.nhs.uk/STU3/StructureDefinition/CareConnect-GPC-MedicationRequest-1"
          ]
        },
        "extension": [
          {
            "url": "https://fhir.nhs.uk/STU3/StructureDefinition/Extension-CareConnect-GPC-PrescriptionType-1",
            "valueCodeableConcept": {
              "coding": [
                {
                  "system": "https://fhir.nhs.uk/STU3/CodeSystem/CareConnect-PrescriptionType-1",
                  "code": "repeat-dispensing",
                  "display": "Repeat dispensing"
                }
              ]
            }
          }
        ],
        "identifier": [
          {
            "system": "https://fhir.nhs.uk/Id/cross-care-setting-identifier",
            "value": "cb5c7884-5867-11eb-a7e5-00505692d4aa"
          }
        ],
        "basedOn": [
          {
            "reference": "MedicationRequest/32"
          }
        ],
        "groupIdentifier": {
          "value": "M-2a"
        },
        "status": "completed",
        "intent": "order",
        "medicationReference": {
          "reference": "Medication/21"
        },
        "subject": {
          "reference": "Patient/2"
        },
        "authoredOn": "2017-11-22T00:00:00+00:00",
        "recorder": {
          "reference": "Practitioner/1"
        },
        "dosageInstruction": [
          {
            "text": "2 tablets a day",
            "patientInstruction": "With evening meal"
          }
        ],
        "dispenseRequest": {
          "validityPeriod": {
            "start": "2018-03-14T00:00:00+00:00",
            "end": "2018-04-10T00:00:00+01:00"
          },
          "quantity": {
            "extension": [
              {
                "url": "https://fhir.nhs.uk/STU3/StructureDefinition/Extension-CareConnect-GPC-MedicationQuantityText-1",
                "valueString": "56"
              }
            ]
          },
          "expectedSupplyDuration": {
            "value": 28,
            "unit": "day",
            "system": "http://unitsofmeasure.org",
            "code": "d"
          },
          "performer": {
            "reference": "Organization/1"
          }
        }
      }
    },
    {
      "resource": {
        "resourceType": "MedicationRequest",
        "id": "38",
        "meta": {
          "profile": [
            "https://fhir.nhs.uk/STU3/StructureDefinition/CareConnect-GPC-MedicationRequest-1"
          ]
        },
        "extension": [
          {
            "url": "https://fhir.nhs.uk/STU3/StructureDefinition/Extension-CareConnect-GPC-PrescriptionType-1",
            "valueCodeableConcept": {
              "coding": [
                {
                  "system": "https://fhir.nhs.uk/STU3/CodeSystem/CareConnect-PrescriptionType-1",
                  "code": "repeat-dispensing",
                  "display": "Repeat dispensing"
                }
              ]
            }
          }
        ],
        "identifier": [
          {
            "system": "https://fhir.nhs.uk/Id/cross-care-setting-identifier",
            "value": "cb5c7917-5867-11eb-a7e5-00505692d4aa"
          }
        ],
        "basedOn": [
          {
            "reference": "MedicationRequest/32"
          }
        ],
        "groupIdentifier": {
          "value": "M-2a"
        },
        "status": "completed",
        "intent": "order",
        "medicationReference": {
          "reference": "Medication/21"
        },
        "subject": {
          "reference": "Patient/2"
        },
        "authoredOn": "2017-11-22T00:00:00+00:00",
        "recorder": {
          "reference": "Practitioner/1"
        },
        "dosageInstruction": [
          {
            "text": "2 tablets a day",
            "patientInstruction": "With evening meal"
          }
        ],
        "dispenseRequest": {
          "validityPeriod": {
            "start": "2018-04-11T00:00:00+01:00",
            "end": "2018-05-08T00:00:00+01:00"
          },
          "quantity": {
            "extension": [
              {
                "url": "https://fhir.nhs.uk/STU3/StructureDefinition/Extension-CareConnect-GPC-MedicationQuantityText-1",
                "valueString": "56"
              }
            ]
          },
          "expectedSupplyDuration": {
            "value": 28,
            "unit": "day",
            "system": "http://unitsofmeasure.org",
            "code": "d"
          },
          "performer": {
            "reference": "Organization/1"
          }
        }
      }
    },
    {
      "resource": {
        "resourceType": "MedicationRequest",
        "id": "39",
        "meta": {
          "profile": [
            "https://fhir.nhs.uk/STU3/StructureDefinition/CareConnect-GPC-MedicationRequest-1"
          ]
        },
        "extension": [
          {
            "url": "https://fhir.nhs.uk/STU3/StructureDefinition/Extension-CareConnect-GPC-PrescriptionType-1",
            "valueCodeableConcept": {
              "coding": [
                {
                  "system": "https://fhir.nhs.uk/STU3/CodeSystem/CareConnect-PrescriptionType-1",
                  "code": "repeat-dispensing",
                  "display": "Repeat dispensing"
                }
              ]
            }
          }
        ],
        "identifier": [
          {
            "system": "https://fhir.nhs.uk/Id/cross-care-setting-identifier",
            "value": "cb5c7a0c-5867-11eb-a7e5-00505692d4aa"
          }
        ],
        "basedOn": [
          {
            "reference": "MedicationRequest/32"
          }
        ],
        "groupIdentifier": {
          "value": "M-2a"
        },
        "status": "completed",
        "intent": "order",
        "medicationReference": {
          "reference": "Medication/21"
        },
        "subject": {
          "reference": "Patient/2"
        },
        "authoredOn": "2017-11-22T00:00:00+00:00",
        "recorder": {
          "reference": "Practitioner/1"
        },
        "dosageInstruction": [
          {
            "text": "2 tablets a day",
            "patientInstruction": "With evening meal"
          }
        ],
        "dispenseRequest": {
          "validityPeriod": {
            "start": "2018-05-09T00:00:00+01:00",
            "end": "2018-06-05T00:00:00+01:00"
          },
          "quantity": {
            "extension": [
              {
                "url": "https://fhir.nhs.uk/STU3/StructureDefinition/Extension-CareConnect-GPC-MedicationQuantityText-1",
                "valueString": "56"
              }
            ]
          },
          "expectedSupplyDuration": {
            "value": 28,
            "unit": "day",
            "system": "http://unitsofmeasure.org",
            "code": "d"
          },
          "performer": {
            "reference": "Organization/1"
          }
        }
      }
    },
    {
      "resource": {
        "resourceType": "MedicationRequest",
        "id": "40",
        "meta": {
          "profile": [
            "https://fhir.nhs.uk/STU3/StructureDefinition/CareConnect-GPC-MedicationRequest-1"
          ]
        },
        "extension": [
          {
            "url": "https://fhir.nhs.uk/STU3/StructureDefinition/Extension-CareConnect-GPC-PrescriptionType-1",
            "valueCodeableConcept": {
              "coding": [
                {
                  "system": "https://fhir.nhs.uk/STU3/CodeSystem/CareConnect-PrescriptionType-1",
                  "code": "repeat-dispensing",
                  "display": "Repeat dispensing"
                }
              ]
            }
          }
        ],
        "identifier": [
          {
            "system": "https://fhir.nhs.uk/Id/cross-care-setting-identifier",
            "value": "cb5c7a9a-5867-11eb-a7e5-00505692d4aa"
          }
        ],
        "basedOn": [
          {
            "reference": "MedicationRequest/32"
          }
        ],
        "groupIdentifier": {
          "value": "M-2a"
        },
        "status": "completed",
        "intent": "order",
        "medicationReference": {
          "reference": "Medication/21"
        },
        "subject": {
          "reference": "Patient/2"
        },
        "authoredOn": "2017-11-22T00:00:00+00:00",
        "recorder": {
          "reference": "Practitioner/1"
        },
        "dosageInstruction": [
          {
            "text": "2 tablets a day",
            "patientInstruction": "With evening meal"
          }
        ],
        "dispenseRequest": {
          "validityPeriod": {
            "start": "2018-06-06T00:00:00+01:00",
            "end": "2018-07-03T00:00:00+01:00"
          },
          "quantity": {
            "extension": [
              {
                "url": "https://fhir.nhs.uk/STU3/StructureDefinition/Extension-CareConnect-GPC-MedicationQuantityText-1",
                "valueString": "56"
              }
            ]
          },
          "expectedSupplyDuration": {
            "value": 28,
            "unit": "day",
            "system": "http://unitsofmeasure.org",
            "code": "d"
          },
          "performer": {
            "reference": "Organization/1"
          }
        }
      }
    },
    {
      "resource": {
        "resourceType": "MedicationRequest",
        "id": "41",
        "meta": {
          "profile": [
            "https://fhir.nhs.uk/STU3/StructureDefinition/CareConnect-GPC-MedicationRequest-1"
          ]
        },
        "extension": [
          {
            "url": "https://fhir.nhs.uk/STU3/StructureDefinition/Extension-CareConnect-GPC-PrescriptionType-1",
            "valueCodeableConcept": {
              "coding": [
                {
                  "system": "https://fhir.nhs.uk/STU3/CodeSystem/CareConnect-PrescriptionType-1",
                  "code": "repeat-dispensing",
                  "display": "Repeat dispensing"
                }
              ]
            }
          }
        ],
        "identifier": [
          {
            "system": "https://fhir.nhs.uk/Id/cross-care-setting-identifier",
            "value": "cb5c7b1b-5867-11eb-a7e5-00505692d4aa"
          }
        ],
        "basedOn": [
          {
            "reference": "MedicationRequest/32"
          }
        ],
        "groupIdentifier": {
          "value": "M-2a"
        },
        "status": "completed",
        "intent": "order",
        "medicationReference": {
          "reference": "Medication/21"
        },
        "subject": {
          "reference": "Patient/2"
        },
        "authoredOn": "2017-11-22T00:00:00+00:00",
        "recorder": {
          "reference": "Practitioner/1"
        },
        "dosageInstruction": [
          {
            "text": "2 tablets a day",
            "patientInstruction": "With evening meal"
          }
        ],
        "dispenseRequest": {
          "validityPeriod": {
            "start": "2018-07-04T00:00:00+01:00",
            "end": "2018-07-31T00:00:00+01:00"
          },
          "quantity": {
            "extension": [
              {
                "url": "https://fhir.nhs.uk/STU3/StructureDefinition/Extension-CareConnect-GPC-MedicationQuantityText-1",
                "valueString": "56"
              }
            ]
          },
          "expectedSupplyDuration": {
            "value": 28,
            "unit": "day",
            "system": "http://unitsofmeasure.org",
            "code": "d"
          },
          "performer": {
            "reference": "Organization/1"
          }
        }
      }
    },
    {
      "resource": {
        "resourceType": "MedicationRequest",
        "id": "42",
        "meta": {
          "profile": [
            "https://fhir.nhs.uk/STU3/StructureDefinition/CareConnect-GPC-MedicationRequest-1"
          ]
        },
        "extension": [
          {
            "url": "https://fhir.nhs.uk/STU3/StructureDefinition/Extension-CareConnect-GPC-PrescriptionType-1",
            "valueCodeableConcept": {
              "coding": [
                {
                  "system": "https://fhir.nhs.uk/STU3/CodeSystem/CareConnect-PrescriptionType-1",
                  "code": "repeat-dispensing",
                  "display": "Repeat dispensing"
                }
              ]
            }
          }
        ],
        "identifier": [
          {
            "system": "https://fhir.nhs.uk/Id/cross-care-setting-identifier",
            "value": "cb5c7ba1-5867-11eb-a7e5-00505692d4aa"
          }
        ],
        "basedOn": [
          {
            "reference": "MedicationRequest/32"
          }
        ],
        "groupIdentifier": {
          "value": "M-2a"
        },
        "status": "completed",
        "intent": "order",
        "medicationReference": {
          "reference": "Medication/21"
        },
        "subject": {
          "reference": "Patient/2"
        },
        "authoredOn": "2017-11-22T00:00:00+00:00",
        "recorder": {
          "reference": "Practitioner/1"
        },
        "dosageInstruction": [
          {
            "text": "2 tablets a day",
            "patientInstruction": "With evening meal"
          }
        ],
        "dispenseRequest": {
          "validityPeriod": {
            "start": "2018-08-01T00:00:00+01:00",
            "end": "2018-08-28T00:00:00+01:00"
          },
          "quantity": {
            "extension": [
              {
                "url": "https://fhir.nhs.uk/STU3/StructureDefinition/Extension-CareConnect-GPC-MedicationQuantityText-1",
                "valueString": "56"
              }
            ]
          },
          "expectedSupplyDuration": {
            "value": 28,
            "unit": "day",
            "system": "http://unitsofmeasure.org",
            "code": "d"
          },
          "performer": {
            "reference": "Organization/1"
          }
        }
      }
    },
    {
      "resource": {
        "resourceType": "MedicationRequest",
        "id": "43",
        "meta": {
          "profile": [
            "https://fhir.nhs.uk/STU3/StructureDefinition/CareConnect-GPC-MedicationRequest-1"
          ]
        },
        "extension": [
          {
            "url": "https://fhir.nhs.uk/STU3/StructureDefinition/Extension-CareConnect-GPC-PrescriptionType-1",
            "valueCodeableConcept": {
              "coding": [
                {
                  "system": "https://fhir.nhs.uk/STU3/CodeSystem/CareConnect-PrescriptionType-1",
                  "code": "repeat-dispensing",
                  "display": "Repeat dispensing"
                }
              ]
            }
          }
        ],
        "identifier": [
          {
            "system": "https://fhir.nhs.uk/Id/cross-care-setting-identifier",
            "value": "cb5c7c26-5867-11eb-a7e5-00505692d4aa"
          }
        ],
        "basedOn": [
          {
            "reference": "MedicationRequest/32"
          }
        ],
        "groupIdentifier": {
          "value": "M-2a"
        },
        "status": "completed",
        "intent": "order",
        "medicationReference": {
          "reference": "Medication/21"
        },
        "subject": {
          "reference": "Patient/2"
        },
        "authoredOn": "2017-11-22T00:00:00+00:00",
        "recorder": {
          "reference": "Practitioner/1"
        },
        "dosageInstruction": [
          {
            "text": "2 tablets a day",
            "patientInstruction": "With evening meal"
          }
        ],
        "dispenseRequest": {
          "validityPeriod": {
            "start": "2018-08-29T00:00:00+01:00",
            "end": "2018-09-25T00:00:00+01:00"
          },
          "quantity": {
            "extension": [
              {
                "url": "https://fhir.nhs.uk/STU3/StructureDefinition/Extension-CareConnect-GPC-MedicationQuantityText-1",
                "valueString": "56"
              }
            ]
          },
          "expectedSupplyDuration": {
            "value": 28,
            "unit": "day",
            "system": "http://unitsofmeasure.org",
            "code": "d"
          },
          "performer": {
            "reference": "Organization/1"
          }
        }
      }
    },
    {
      "resource": {
        "resourceType": "MedicationRequest",
        "id": "1043",
        "meta": {
          "profile": [
            "https://fhir.nhs.uk/STU3/StructureDefinition/CareConnect-GPC-MedicationRequest-1"
          ]
        },
        "extension": [
          {
            "url": "https://fhir.nhs.uk/STU3/StructureDefinition/Extension-CareConnect-GPC-PrescriptionType-1",
            "valueCodeableConcept": {
              "coding": [
                {
                  "system": "https://fhir.nhs.uk/STU3/CodeSystem/CareConnect-PrescriptionType-1",
                  "code": "repeat-dispensing",
                  "display": "Repeat dispensing"
                }
              ]
            }
          }
        ],
        "identifier": [
          {
            "system": "https://fhir.nhs.uk/Id/cross-care-setting-identifier",
            "value": "cb5c9148-5867-11eb-a7e5-00505692d4aa"
          }
        ],
        "basedOn": [
          {
            "reference": "MedicationRequest/32"
          }
        ],
        "groupIdentifier": {
          "value": "M-2a"
        },
        "status": "active",
        "intent": "order",
        "medicationReference": {
          "reference": "Medication/21"
        },
        "subject": {
          "reference": "Patient/2"
        },
        "authoredOn": "2017-11-22T00:00:00+00:00",
        "recorder": {
          "reference": "Practitioner/1"
        },
        "dosageInstruction": [
          {
            "text": "2 tablets a day",
            "patientInstruction": "With evening meal"
          }
        ],
        "dispenseRequest": {
          "validityPeriod": {
            "start": "2018-09-25T00:00:00+01:00",
            "end": "2018-10-24T00:00:00+01:00"
          },
          "quantity": {
            "extension": [
              {
                "url": "https://fhir.nhs.uk/STU3/StructureDefinition/Extension-CareConnect-GPC-MedicationQuantityText-1",
                "valueString": "56"
              }
            ]
          },
          "expectedSupplyDuration": {
            "value": 28,
            "unit": "day",
            "system": "http://unitsofmeasure.org",
            "code": "d"
          },
          "performer": {
            "reference": "Organization/1"
          }
        }
      }
    },
    {
      "resource": {
        "resourceType": "MedicationStatement",
        "id": "10",
        "meta": {
          "profile": [
            "https://fhir.nhs.uk/STU3/StructureDefinition/CareConnect-GPC-MedicationStatement-1"
          ]
        },
        "extension": [
          {
            "url": "https://fhir.nhs.uk/STU3/StructureDefinition/Extension-CareConnect-GPC-MedicationStatementLastIssueDate-1",
            "valueDateTime": "2018-08-29"
          },
          {
            "url": "https://fhir.nhs.uk/STU3/StructureDefinition/Extension-CareConnect-GPC-PrescribingAgency-1",
            "valueCodeableConcept": {
              "coding": [
                {
                  "system": "https://fhir.nhs.uk/STU3/CodeSystem/CareConnect-PrescribingAgency-1",
                  "code": "prescribed-at-gp-practice",
                  "display": "Prescribed at GP practice"
                }
              ]
            }
          },
          {
            "url": "https://fhir.hl7.org.uk/STU3/StructureDefinition/Extension-CareConnect-MedicationStatementDosageLastChanged-1",
            "valueDateTime": "2018-08-29T00:00:00+01:00"
          }
        ],
        "identifier": [
          {
            "system": "https://fhir.nhs.uk/Id/cross-care-setting-identifier",
            "value": "cb69b823-5867-11eb-a7e5-00505692d4aa"
          }
        ],
        "basedOn": [
          {
            "reference": "MedicationRequest/44"
          }
        ],
        "status": "active",
        "medicationReference": {
          "reference": "Medication/22"
        },
        "effectivePeriod": {
          "start": "2017-11-22T00:00:00+00:00",
          "end": "2018-09-26T00:00:00+01:00"
        },
        "dateAsserted": "2017-11-22T00:00:00+00:00",
        "subject": {
          "reference": "Patient/2"
        },
        "taken": "unk",
        "dosage": [
          {
            "text": "1 tablet a day",
            "patientInstruction": "Night/nocte"
          }
        ]
      }
    },
    {
      "resource": {
        "resourceType": "Medication",
        "id": "22",
        "meta": {
          "profile": [
            "https://fhir.nhs.uk/STU3/StructureDefinition/CareConnect-GPC-Medication-1"
          ]
        },
        "code": {
          "coding": [
            {
              "system": "http://snomed.info/sct",
              "code": "320030001",
              "display": "Atorvastaton 20mg tablets"
            },
            {
              "system": "https://fhir.hl7.org.uk/Id/multilex-drug-codes",
              "code": "10688002",
              "display": "Atorvastatin 20mg tablets",
              "userSelected": true
            }
          ]
        }
      }
    },
    {
      "resource": {
        "resourceType": "MedicationRequest",
        "id": "44",
        "meta": {
          "profile": [
            "https://fhir.nhs.uk/STU3/StructureDefinition/CareConnect-GPC-MedicationRequest-1"
          ]
        },
        "extension": [
          {
            "url": "https://fhir.nhs.uk/STU3/StructureDefinition/Extension-CareConnect-GPC-MedicationRepeatInformation-1",
            "extension": [
              {
                "url": "numberOfRepeatPrescriptionsAllowed",
                "valuePositiveInt": 12
              },
              {
                "url": "numberOfRepeatPrescriptionsIssued",
                "valuePositiveInt": 11
              }
            ]
          },
          {
            "url": "https://fhir.nhs.uk/STU3/StructureDefinition/Extension-CareConnect-GPC-PrescriptionType-1",
            "valueCodeableConcept": {
              "coding": [
                {
                  "system": "https://fhir.nhs.uk/STU3/CodeSystem/CareConnect-PrescriptionType-1",
                  "code": "repeat",
                  "display": "Repeat"
                }
              ]
            }
          }
        ],
        "identifier": [
          {
            "system": "https://fhir.nhs.uk/Id/cross-care-setting-identifier",
            "value": "cb5c7cac-5867-11eb-a7e5-00505692d4aa"
          }
        ],
        "groupIdentifier": {
          "value": "M-2b"
        },
        "status": "active",
        "intent": "plan",
        "medicationReference": {
          "reference": "Medication/22"
        },
        "subject": {
          "reference": "Patient/2"
        },
        "authoredOn": "2017-11-22T00:00:00+00:00",
        "recorder": {
          "reference": "Practitioner/1"
        },
        "dosageInstruction": [
          {
            "text": "1 tablet a day",
            "patientInstruction": "Night/nocte"
          }
        ],
        "dispenseRequest": {
          "validityPeriod": {
            "start": "2017-11-22T00:00:00+00:00",
            "end": "2018-12-27T00:00:00+00:00"
          },
          "quantity": {
            "extension": [
              {
                "url": "https://fhir.nhs.uk/STU3/StructureDefinition/Extension-CareConnect-GPC-MedicationQuantityText-1",
                "valueString": "28"
              }
            ]
          },
          "expectedSupplyDuration": {
            "value": 28,
            "unit": "day",
            "system": "http://unitsofmeasure.org",
            "code": "d"
          },
          "performer": {
            "reference": "Organization/1"
          }
        }
      }
    },
    {
      "resource": {
        "resourceType": "MedicationRequest",
        "id": "45",
        "meta": {
          "profile": [
            "https://fhir.nhs.uk/STU3/StructureDefinition/CareConnect-GPC-MedicationRequest-1"
          ]
        },
        "extension": [
          {
            "url": "https://fhir.nhs.uk/STU3/StructureDefinition/Extension-CareConnect-GPC-PrescriptionType-1",
            "valueCodeableConcept": {
              "coding": [
                {
                  "system": "https://fhir.nhs.uk/STU3/CodeSystem/CareConnect-PrescriptionType-1",
                  "code": "repeat",
                  "display": "Repeat"
                }
              ]
            }
          }
        ],
        "identifier": [
          {
            "system": "https://fhir.nhs.uk/Id/cross-care-setting-identifier",
            "value": "cb5c7d3a-5867-11eb-a7e5-00505692d4aa"
          }
        ],
        "basedOn": [
          {
            "reference": "MedicationRequest/44"
          }
        ],
        "groupIdentifier": {
          "value": "M-2b"
        },
        "status": "completed",
        "intent": "order",
        "medicationReference": {
          "reference": "Medication/22"
        },
        "subject": {
          "reference": "Patient/2"
        },
        "authoredOn": "2017-11-22T00:00:00+00:00",
        "recorder": {
          "reference": "Practitioner/1"
        },
        "dosageInstruction": [
          {
            "text": "1 tablet a day",
            "patientInstruction": "Night/nocte"
          }
        ],
        "dispenseRequest": {
          "validityPeriod": {
            "start": "2017-11-22T00:00:00+00:00",
            "end": "2017-12-19T00:00:00+00:00"
          },
          "quantity": {
            "extension": [
              {
                "url": "https://fhir.nhs.uk/STU3/StructureDefinition/Extension-CareConnect-GPC-MedicationQuantityText-1",
                "valueString": "28"
              }
            ]
          },
          "expectedSupplyDuration": {
            "value": 28,
            "unit": "day",
            "system": "http://unitsofmeasure.org",
            "code": "d"
          },
          "performer": {
            "reference": "Organization/1"
          }
        }
      }
    },
    {
      "resource": {
        "resourceType": "MedicationRequest",
        "id": "46",
        "meta": {
          "profile": [
            "https://fhir.nhs.uk/STU3/StructureDefinition/CareConnect-GPC-MedicationRequest-1"
          ]
        },
        "extension": [
          {
            "url": "https://fhir.nhs.uk/STU3/StructureDefinition/Extension-CareConnect-GPC-PrescriptionType-1",
            "valueCodeableConcept": {
              "coding": [
                {
                  "system": "https://fhir.nhs.uk/STU3/CodeSystem/CareConnect-PrescriptionType-1",
                  "code": "repeat",
                  "display": "Repeat"
                }
              ]
            }
          }
        ],
        "identifier": [
          {
            "system": "https://fhir.nhs.uk/Id/cross-care-setting-identifier",
            "value": "cb5c7dc0-5867-11eb-a7e5-00505692d4aa"
          }
        ],
        "basedOn": [
          {
            "reference": "MedicationRequest/44"
          }
        ],
        "groupIdentifier": {
          "value": "M-2b"
        },
        "status": "completed",
        "intent": "order",
        "medicationReference": {
          "reference": "Medication/22"
        },
        "subject": {
          "reference": "Patient/2"
        },
        "authoredOn": "2017-11-22T00:00:00+00:00",
        "recorder": {
          "reference": "Practitioner/1"
        },
        "dosageInstruction": [
          {
            "text": "1 tablet a day",
            "patientInstruction": "Night/nocte"
          }
        ],
        "dispenseRequest": {
          "validityPeriod": {
            "start": "2017-12-20T00:00:00+00:00",
            "end": "2018-01-16T00:00:00+00:00"
          },
          "quantity": {
            "extension": [
              {
                "url": "https://fhir.nhs.uk/STU3/StructureDefinition/Extension-CareConnect-GPC-MedicationQuantityText-1",
                "valueString": "28"
              }
            ]
          },
          "expectedSupplyDuration": {
            "value": 28,
            "unit": "day",
            "system": "http://unitsofmeasure.org",
            "code": "d"
          },
          "performer": {
            "reference": "Organization/1"
          }
        }
      }
    },
    {
      "resource": {
        "resourceType": "MedicationRequest",
        "id": "47",
        "meta": {
          "profile": [
            "https://fhir.nhs.uk/STU3/StructureDefinition/CareConnect-GPC-MedicationRequest-1"
          ]
        },
        "extension": [
          {
            "url": "https://fhir.nhs.uk/STU3/StructureDefinition/Extension-CareConnect-GPC-PrescriptionType-1",
            "valueCodeableConcept": {
              "coding": [
                {
                  "system": "https://fhir.nhs.uk/STU3/CodeSystem/CareConnect-PrescriptionType-1",
                  "code": "repeat",
                  "display": "Repeat"
                }
              ]
            }
          }
        ],
        "identifier": [
          {
            "system": "https://fhir.nhs.uk/Id/cross-care-setting-identifier",
            "value": "cb5c7e84-5867-11eb-a7e5-00505692d4aa"
          }
        ],
        "basedOn": [
          {
            "reference": "MedicationRequest/44"
          }
        ],
        "groupIdentifier": {
          "value": "M-2b"
        },
        "status": "completed",
        "intent": "order",
        "medicationReference": {
          "reference": "Medication/22"
        },
        "subject": {
          "reference": "Patient/2"
        },
        "authoredOn": "2017-11-22T00:00:00+00:00",
        "recorder": {
          "reference": "Practitioner/1"
        },
        "dosageInstruction": [
          {
            "text": "1 tablet a day",
            "patientInstruction": "Night/nocte"
          }
        ],
        "dispenseRequest": {
          "validityPeriod": {
            "start": "2018-01-17T00:00:00+00:00",
            "end": "2018-02-13T00:00:00+00:00"
          },
          "quantity": {
            "extension": [
              {
                "url": "https://fhir.nhs.uk/STU3/StructureDefinition/Extension-CareConnect-GPC-MedicationQuantityText-1",
                "valueString": "28"
              }
            ]
          },
          "expectedSupplyDuration": {
            "value": 28,
            "unit": "day",
            "system": "http://unitsofmeasure.org",
            "code": "d"
          },
          "performer": {
            "reference": "Organization/1"
          }
        }
      }
    },
    {
      "resource": {
        "resourceType": "MedicationRequest",
        "id": "48",
        "meta": {
          "profile": [
            "https://fhir.nhs.uk/STU3/StructureDefinition/CareConnect-GPC-MedicationRequest-1"
          ]
        },
        "extension": [
          {
            "url": "https://fhir.nhs.uk/STU3/StructureDefinition/Extension-CareConnect-GPC-PrescriptionType-1",
            "valueCodeableConcept": {
              "coding": [
                {
                  "system": "https://fhir.nhs.uk/STU3/CodeSystem/CareConnect-PrescriptionType-1",
                  "code": "repeat",
                  "display": "Repeat"
                }
              ]
            }
          }
        ],
        "identifier": [
          {
            "system": "https://fhir.nhs.uk/Id/cross-care-setting-identifier",
            "value": "cb5c7f0e-5867-11eb-a7e5-00505692d4aa"
          }
        ],
        "basedOn": [
          {
            "reference": "MedicationRequest/44"
          }
        ],
        "groupIdentifier": {
          "value": "M-2b"
        },
        "status": "completed",
        "intent": "order",
        "medicationReference": {
          "reference": "Medication/22"
        },
        "subject": {
          "reference": "Patient/2"
        },
        "authoredOn": "2017-11-22T00:00:00+00:00",
        "recorder": {
          "reference": "Practitioner/1"
        },
        "dosageInstruction": [
          {
            "text": "1 tablet a day",
            "patientInstruction": "Night/nocte"
          }
        ],
        "dispenseRequest": {
          "validityPeriod": {
            "start": "2018-02-14T00:00:00+00:00",
            "end": "2018-03-13T00:00:00+00:00"
          },
          "quantity": {
            "extension": [
              {
                "url": "https://fhir.nhs.uk/STU3/StructureDefinition/Extension-CareConnect-GPC-MedicationQuantityText-1",
                "valueString": "28"
              }
            ]
          },
          "expectedSupplyDuration": {
            "value": 28,
            "unit": "day",
            "system": "http://unitsofmeasure.org",
            "code": "d"
          },
          "performer": {
            "reference": "Organization/1"
          }
        }
      }
    },
    {
      "resource": {
        "resourceType": "MedicationRequest",
        "id": "49",
        "meta": {
          "profile": [
            "https://fhir.nhs.uk/STU3/StructureDefinition/CareConnect-GPC-MedicationRequest-1"
          ]
        },
        "extension": [
          {
            "url": "https://fhir.nhs.uk/STU3/StructureDefinition/Extension-CareConnect-GPC-PrescriptionType-1",
            "valueCodeableConcept": {
              "coding": [
                {
                  "system": "https://fhir.nhs.uk/STU3/CodeSystem/CareConnect-PrescriptionType-1",
                  "code": "repeat",
                  "display": "Repeat"
                }
              ]
            }
          }
        ],
        "identifier": [
          {
            "system": "https://fhir.nhs.uk/Id/cross-care-setting-identifier",
            "value": "cb5c7f8f-5867-11eb-a7e5-00505692d4aa"
          }
        ],
        "basedOn": [
          {
            "reference": "MedicationRequest/44"
          }
        ],
        "groupIdentifier": {
          "value": "M-2b"
        },
        "status": "completed",
        "intent": "order",
        "medicationReference": {
          "reference": "Medication/22"
        },
        "subject": {
          "reference": "Patient/2"
        },
        "authoredOn": "2017-11-22T00:00:00+00:00",
        "recorder": {
          "reference": "Practitioner/1"
        },
        "dosageInstruction": [
          {
            "text": "1 tablet a day",
            "patientInstruction": "Night/nocte"
          }
        ],
        "dispenseRequest": {
          "validityPeriod": {
            "start": "2018-03-14T00:00:00+00:00",
            "end": "2018-04-10T00:00:00+01:00"
          },
          "quantity": {
            "extension": [
              {
                "url": "https://fhir.nhs.uk/STU3/StructureDefinition/Extension-CareConnect-GPC-MedicationQuantityText-1",
                "valueString": "28"
              }
            ]
          },
          "expectedSupplyDuration": {
            "value": 28,
            "unit": "day",
            "system": "http://unitsofmeasure.org",
            "code": "d"
          },
          "performer": {
            "reference": "Organization/1"
          }
        }
      }
    },
    {
      "resource": {
        "resourceType": "MedicationRequest",
        "id": "50",
        "meta": {
          "profile": [
            "https://fhir.nhs.uk/STU3/StructureDefinition/CareConnect-GPC-MedicationRequest-1"
          ]
        },
        "extension": [
          {
            "url": "https://fhir.nhs.uk/STU3/StructureDefinition/Extension-CareConnect-GPC-PrescriptionType-1",
            "valueCodeableConcept": {
              "coding": [
                {
                  "system": "https://fhir.nhs.uk/STU3/CodeSystem/CareConnect-PrescriptionType-1",
                  "code": "repeat",
                  "display": "Repeat"
                }
              ]
            }
          }
        ],
        "identifier": [
          {
            "system": "https://fhir.nhs.uk/Id/cross-care-setting-identifier",
            "value": "cb5c8014-5867-11eb-a7e5-00505692d4aa"
          }
        ],
        "basedOn": [
          {
            "reference": "MedicationRequest/44"
          }
        ],
        "groupIdentifier": {
          "value": "M-2b"
        },
        "status": "completed",
        "intent": "order",
        "medicationReference": {
          "reference": "Medication/22"
        },
        "subject": {
          "reference": "Patient/2"
        },
        "authoredOn": "2017-11-22T00:00:00+00:00",
        "recorder": {
          "reference": "Practitioner/1"
        },
        "dosageInstruction": [
          {
            "text": "1 tablet a day",
            "patientInstruction": "Night/nocte"
          }
        ],
        "dispenseRequest": {
          "validityPeriod": {
            "start": "2018-04-11T00:00:00+01:00",
            "end": "2018-05-08T00:00:00+01:00"
          },
          "quantity": {
            "extension": [
              {
                "url": "https://fhir.nhs.uk/STU3/StructureDefinition/Extension-CareConnect-GPC-MedicationQuantityText-1",
                "valueString": "28"
              }
            ]
          },
          "expectedSupplyDuration": {
            "value": 28,
            "unit": "day",
            "system": "http://unitsofmeasure.org",
            "code": "d"
          },
          "performer": {
            "reference": "Organization/1"
          }
        }
      }
    },
    {
      "resource": {
        "resourceType": "MedicationRequest",
        "id": "51",
        "meta": {
          "profile": [
            "https://fhir.nhs.uk/STU3/StructureDefinition/CareConnect-GPC-MedicationRequest-1"
          ]
        },
        "extension": [
          {
            "url": "https://fhir.nhs.uk/STU3/StructureDefinition/Extension-CareConnect-GPC-PrescriptionType-1",
            "valueCodeableConcept": {
              "coding": [
                {
                  "system": "https://fhir.nhs.uk/STU3/CodeSystem/CareConnect-PrescriptionType-1",
                  "code": "repeat",
                  "display": "Repeat"
                }
              ]
            }
          }
        ],
        "identifier": [
          {
            "system": "https://fhir.nhs.uk/Id/cross-care-setting-identifier",
            "value": "cb5c8091-5867-11eb-a7e5-00505692d4aa"
          }
        ],
        "basedOn": [
          {
            "reference": "MedicationRequest/44"
          }
        ],
        "groupIdentifier": {
          "value": "M-2b"
        },
        "status": "completed",
        "intent": "order",
        "medicationReference": {
          "reference": "Medication/22"
        },
        "subject": {
          "reference": "Patient/2"
        },
        "authoredOn": "2017-11-22T00:00:00+00:00",
        "recorder": {
          "reference": "Practitioner/1"
        },
        "dosageInstruction": [
          {
            "text": "1 tablet a day",
            "patientInstruction": "Night/nocte"
          }
        ],
        "dispenseRequest": {
          "validityPeriod": {
            "start": "2018-05-09T00:00:00+01:00",
            "end": "2018-06-05T00:00:00+01:00"
          },
          "quantity": {
            "extension": [
              {
                "url": "https://fhir.nhs.uk/STU3/StructureDefinition/Extension-CareConnect-GPC-MedicationQuantityText-1",
                "valueString": "28"
              }
            ]
          },
          "expectedSupplyDuration": {
            "value": 28,
            "unit": "day",
            "system": "http://unitsofmeasure.org",
            "code": "d"
          },
          "performer": {
            "reference": "Organization/1"
          }
        }
      }
    },
    {
      "resource": {
        "resourceType": "MedicationRequest",
        "id": "52",
        "meta": {
          "profile": [
            "https://fhir.nhs.uk/STU3/StructureDefinition/CareConnect-GPC-MedicationRequest-1"
          ]
        },
        "extension": [
          {
            "url": "https://fhir.nhs.uk/STU3/StructureDefinition/Extension-CareConnect-GPC-PrescriptionType-1",
            "valueCodeableConcept": {
              "coding": [
                {
                  "system": "https://fhir.nhs.uk/STU3/CodeSystem/CareConnect-PrescriptionType-1",
                  "code": "repeat",
                  "display": "Repeat"
                }
              ]
            }
          }
        ],
        "identifier": [
          {
            "system": "https://fhir.nhs.uk/Id/cross-care-setting-identifier",
            "value": "cb5c8112-5867-11eb-a7e5-00505692d4aa"
          }
        ],
        "basedOn": [
          {
            "reference": "MedicationRequest/44"
          }
        ],
        "groupIdentifier": {
          "value": "M-2b"
        },
        "status": "completed",
        "intent": "order",
        "medicationReference": {
          "reference": "Medication/22"
        },
        "subject": {
          "reference": "Patient/2"
        },
        "authoredOn": "2017-11-22T00:00:00+00:00",
        "recorder": {
          "reference": "Practitioner/1"
        },
        "dosageInstruction": [
          {
            "text": "1 tablet a day",
            "patientInstruction": "Night/nocte"
          }
        ],
        "dispenseRequest": {
          "validityPeriod": {
            "start": "2018-06-06T00:00:00+01:00",
            "end": "2018-07-03T00:00:00+01:00"
          },
          "quantity": {
            "extension": [
              {
                "url": "https://fhir.nhs.uk/STU3/StructureDefinition/Extension-CareConnect-GPC-MedicationQuantityText-1",
                "valueString": "28"
              }
            ]
          },
          "expectedSupplyDuration": {
            "value": 28,
            "unit": "day",
            "system": "http://unitsofmeasure.org",
            "code": "d"
          },
          "performer": {
            "reference": "Organization/1"
          }
        }
      }
    },
    {
      "resource": {
        "resourceType": "MedicationRequest",
        "id": "53",
        "meta": {
          "profile": [
            "https://fhir.nhs.uk/STU3/StructureDefinition/CareConnect-GPC-MedicationRequest-1"
          ]
        },
        "extension": [
          {
            "url": "https://fhir.nhs.uk/STU3/StructureDefinition/Extension-CareConnect-GPC-PrescriptionType-1",
            "valueCodeableConcept": {
              "coding": [
                {
                  "system": "https://fhir.nhs.uk/STU3/CodeSystem/CareConnect-PrescriptionType-1",
                  "code": "repeat",
                  "display": "Repeat"
                }
              ]
            }
          }
        ],
        "identifier": [
          {
            "system": "https://fhir.nhs.uk/Id/cross-care-setting-identifier",
            "value": "cb5c82cf-5867-11eb-a7e5-00505692d4aa"
          }
        ],
        "basedOn": [
          {
            "reference": "MedicationRequest/44"
          }
        ],
        "groupIdentifier": {
          "value": "M-2b"
        },
        "status": "completed",
        "intent": "order",
        "medicationReference": {
          "reference": "Medication/22"
        },
        "subject": {
          "reference": "Patient/2"
        },
        "authoredOn": "2017-11-22T00:00:00+00:00",
        "recorder": {
          "reference": "Practitioner/1"
        },
        "dosageInstruction": [
          {
            "text": "1 tablet a day",
            "patientInstruction": "Night/nocte"
          }
        ],
        "dispenseRequest": {
          "validityPeriod": {
            "start": "2018-07-04T00:00:00+01:00",
            "end": "2018-07-31T00:00:00+01:00"
          },
          "quantity": {
            "extension": [
              {
                "url": "https://fhir.nhs.uk/STU3/StructureDefinition/Extension-CareConnect-GPC-MedicationQuantityText-1",
                "valueString": "28"
              }
            ]
          },
          "expectedSupplyDuration": {
            "value": 28,
            "unit": "day",
            "system": "http://unitsofmeasure.org",
            "code": "d"
          },
          "performer": {
            "reference": "Organization/1"
          }
        }
      }
    },
    {
      "resource": {
        "resourceType": "MedicationRequest",
        "id": "54",
        "meta": {
          "profile": [
            "https://fhir.nhs.uk/STU3/StructureDefinition/CareConnect-GPC-MedicationRequest-1"
          ]
        },
        "extension": [
          {
            "url": "https://fhir.nhs.uk/STU3/StructureDefinition/Extension-CareConnect-GPC-PrescriptionType-1",
            "valueCodeableConcept": {
              "coding": [
                {
                  "system": "https://fhir.nhs.uk/STU3/CodeSystem/CareConnect-PrescriptionType-1",
                  "code": "repeat",
                  "display": "Repeat"
                }
              ]
            }
          }
        ],
        "identifier": [
          {
            "system": "https://fhir.nhs.uk/Id/cross-care-setting-identifier",
            "value": "cb5c8355-5867-11eb-a7e5-00505692d4aa"
          }
        ],
        "basedOn": [
          {
            "reference": "MedicationRequest/44"
          }
        ],
        "groupIdentifier": {
          "value": "M-2b"
        },
        "status": "completed",
        "intent": "order",
        "medicationReference": {
          "reference": "Medication/22"
        },
        "subject": {
          "reference": "Patient/2"
        },
        "authoredOn": "2017-11-22T00:00:00+00:00",
        "recorder": {
          "reference": "Practitioner/1"
        },
        "dosageInstruction": [
          {
            "text": "1 tablet a day",
            "patientInstruction": "Night/nocte"
          }
        ],
        "dispenseRequest": {
          "validityPeriod": {
            "start": "2018-08-01T00:00:00+01:00",
            "end": "2018-08-28T00:00:00+01:00"
          },
          "quantity": {
            "extension": [
              {
                "url": "https://fhir.nhs.uk/STU3/StructureDefinition/Extension-CareConnect-GPC-MedicationQuantityText-1",
                "valueString": "28"
              }
            ]
          },
          "expectedSupplyDuration": {
            "value": 28,
            "unit": "day",
            "system": "http://unitsofmeasure.org",
            "code": "d"
          },
          "performer": {
            "reference": "Organization/1"
          }
        }
      }
    },
    {
      "resource": {
        "resourceType": "MedicationRequest",
        "id": "55",
        "meta": {
          "profile": [
            "https://fhir.nhs.uk/STU3/StructureDefinition/CareConnect-GPC-MedicationRequest-1"
          ]
        },
        "extension": [
          {
            "url": "https://fhir.nhs.uk/STU3/StructureDefinition/Extension-CareConnect-GPC-PrescriptionType-1",
            "valueCodeableConcept": {
              "coding": [
                {
                  "system": "https://fhir.nhs.uk/STU3/CodeSystem/CareConnect-PrescriptionType-1",
                  "code": "repeat",
                  "display": "Repeat"
                }
              ]
            }
          }
        ],
        "identifier": [
          {
            "system": "https://fhir.nhs.uk/Id/cross-care-setting-identifier",
            "value": "cb5c83d2-5867-11eb-a7e5-00505692d4aa"
          }
        ],
        "basedOn": [
          {
            "reference": "MedicationRequest/44"
          }
        ],
        "groupIdentifier": {
          "value": "M-2b"
        },
        "status": "completed",
        "intent": "order",
        "medicationReference": {
          "reference": "Medication/22"
        },
        "subject": {
          "reference": "Patient/2"
        },
        "authoredOn": "2017-11-22T00:00:00+00:00",
        "recorder": {
          "reference": "Practitioner/1"
        },
        "dosageInstruction": [
          {
            "text": "1 tablet a day",
            "patientInstruction": "Night/nocte"
          }
        ],
        "dispenseRequest": {
          "validityPeriod": {
            "start": "2018-08-29T00:00:00+01:00",
            "end": "2018-09-25T00:00:00+01:00"
          },
          "quantity": {
            "extension": [
              {
                "url": "https://fhir.nhs.uk/STU3/StructureDefinition/Extension-CareConnect-GPC-MedicationQuantityText-1",
                "valueString": "28"
              }
            ]
          },
          "expectedSupplyDuration": {
            "value": 28,
            "unit": "day",
            "system": "http://unitsofmeasure.org",
            "code": "d"
          },
          "performer": {
            "reference": "Organization/1"
          }
        }
      }
    },
    {
      "resource": {
        "resourceType": "MedicationStatement",
        "id": "11",
        "meta": {
          "profile": [
            "https://fhir.nhs.uk/STU3/StructureDefinition/CareConnect-GPC-MedicationStatement-1"
          ]
        },
        "extension": [
          {
            "url": "https://fhir.nhs.uk/STU3/StructureDefinition/Extension-CareConnect-GPC-MedicationStatementLastIssueDate-1",
            "valueDateTime": "2018-08-29"
          },
          {
            "url": "https://fhir.nhs.uk/STU3/StructureDefinition/Extension-CareConnect-GPC-PrescribingAgency-1",
            "valueCodeableConcept": {
              "coding": [
                {
                  "system": "https://fhir.nhs.uk/STU3/CodeSystem/CareConnect-PrescribingAgency-1",
                  "code": "prescribed-at-gp-practice",
                  "display": "Prescribed at GP practice"
                }
              ]
            }
          },
          {
            "url": "https://fhir.hl7.org.uk/STU3/StructureDefinition/Extension-CareConnect-MedicationStatementDosageLastChanged-1",
            "valueDateTime": "2018-08-29T00:00:00+01:00"
          }
        ],
        "identifier": [
          {
            "system": "https://fhir.nhs.uk/Id/cross-care-setting-identifier",
            "value": "cb69b8c8-5867-11eb-a7e5-00505692d4aa"
          }
        ],
        "basedOn": [
          {
            "reference": "MedicationRequest/56"
          }
        ],
        "status": "active",
        "medicationReference": {
          "reference": "Medication/23"
        },
        "effectivePeriod": {
          "start": "2017-11-22T00:00:00+00:00",
          "end": "2018-09-26T00:00:00+01:00"
        },
        "dateAsserted": "2017-11-22T00:00:00+00:00",
        "subject": {
          "reference": "Patient/2"
        },
        "taken": "unk",
        "dosage": [
          {
            "text": "1 tablet a day",
            "patientInstruction": "Morning"
          }
        ]
      }
    },
    {
      "resource": {
        "resourceType": "Medication",
        "id": "23",
        "meta": {
          "profile": [
            "https://fhir.nhs.uk/STU3/StructureDefinition/CareConnect-GPC-Medication-1"
          ]
        },
        "code": {
          "coding": [
            {
              "system": "http://snomed.info/sct",
              "code": "325242002",
              "display": "Gliclazide 80mg tables"
            },
            {
              "system": "https://fhir.hl7.org.uk/Id/multilex-drug-codes",
              "code": "03716001",
              "display": "Gliclazide 80mg tablets",
              "userSelected": true
            }
          ]
        }
      }
    },
    {
      "resource": {
        "resourceType": "MedicationRequest",
        "id": "56",
        "meta": {
          "profile": [
            "https://fhir.nhs.uk/STU3/StructureDefinition/CareConnect-GPC-MedicationRequest-1"
          ]
        },
        "extension": [
          {
            "url": "https://fhir.nhs.uk/STU3/StructureDefinition/Extension-CareConnect-GPC-MedicationRepeatInformation-1",
            "extension": [
              {
                "url": "numberOfRepeatPrescriptionsAllowed",
                "valuePositiveInt": 12
              },
              {
                "url": "numberOfRepeatPrescriptionsIssued",
                "valuePositiveInt": 11
              }
            ]
          },
          {
            "url": "https://fhir.nhs.uk/STU3/StructureDefinition/Extension-CareConnect-GPC-PrescriptionType-1",
            "valueCodeableConcept": {
              "coding": [
                {
                  "system": "https://fhir.nhs.uk/STU3/CodeSystem/CareConnect-PrescriptionType-1",
                  "code": "repeat",
                  "display": "Repeat"
                }
              ]
            }
          }
        ],
        "identifier": [
          {
            "system": "https://fhir.nhs.uk/Id/cross-care-setting-identifier",
            "value": "cb5c8491-5867-11eb-a7e5-00505692d4aa"
          }
        ],
        "groupIdentifier": {
          "value": "M-2c"
        },
        "status": "active",
        "intent": "plan",
        "medicationReference": {
          "reference": "Medication/23"
        },
        "subject": {
          "reference": "Patient/2"
        },
        "authoredOn": "2017-11-22T00:00:00+00:00",
        "recorder": {
          "reference": "Practitioner/1"
        },
        "dosageInstruction": [
          {
            "text": "1 tablet a day",
            "patientInstruction": "Morning"
          }
        ],
        "dispenseRequest": {
          "validityPeriod": {
            "start": "2017-11-22T00:00:00+00:00",
            "end": "2018-12-27T00:00:00+00:00"
          },
          "quantity": {
            "extension": [
              {
                "url": "https://fhir.nhs.uk/STU3/StructureDefinition/Extension-CareConnect-GPC-MedicationQuantityText-1",
                "valueString": "28"
              }
            ]
          },
          "expectedSupplyDuration": {
            "value": 28,
            "unit": "day",
            "system": "http://unitsofmeasure.org",
            "code": "d"
          },
          "performer": {
            "reference": "Organization/1"
          }
        }
      }
    },
    {
      "resource": {
        "resourceType": "MedicationRequest",
        "id": "57",
        "meta": {
          "profile": [
            "https://fhir.nhs.uk/STU3/StructureDefinition/CareConnect-GPC-MedicationRequest-1"
          ]
        },
        "extension": [
          {
            "url": "https://fhir.nhs.uk/STU3/StructureDefinition/Extension-CareConnect-GPC-PrescriptionType-1",
            "valueCodeableConcept": {
              "coding": [
                {
                  "system": "https://fhir.nhs.uk/STU3/CodeSystem/CareConnect-PrescriptionType-1",
                  "code": "repeat",
                  "display": "Repeat"
                }
              ]
            }
          }
        ],
        "identifier": [
          {
            "system": "https://fhir.nhs.uk/Id/cross-care-setting-identifier",
            "value": "cb5c851b-5867-11eb-a7e5-00505692d4aa"
          }
        ],
        "basedOn": [
          {
            "reference": "MedicationRequest/56"
          }
        ],
        "groupIdentifier": {
          "value": "M-2c"
        },
        "status": "completed",
        "intent": "order",
        "medicationReference": {
          "reference": "Medication/23"
        },
        "subject": {
          "reference": "Patient/2"
        },
        "authoredOn": "2017-11-22T00:00:00+00:00",
        "recorder": {
          "reference": "Practitioner/1"
        },
        "dosageInstruction": [
          {
            "text": "1 tablet a day",
            "patientInstruction": "Morning"
          }
        ],
        "dispenseRequest": {
          "validityPeriod": {
            "start": "2017-11-22T00:00:00+00:00",
            "end": "2017-12-19T00:00:00+00:00"
          },
          "quantity": {
            "extension": [
              {
                "url": "https://fhir.nhs.uk/STU3/StructureDefinition/Extension-CareConnect-GPC-MedicationQuantityText-1",
                "valueString": "28"
              }
            ]
          },
          "expectedSupplyDuration": {
            "value": 28,
            "unit": "day",
            "system": "http://unitsofmeasure.org",
            "code": "d"
          },
          "performer": {
            "reference": "Organization/1"
          }
        }
      }
    },
    {
      "resource": {
        "resourceType": "MedicationRequest",
        "id": "58",
        "meta": {
          "profile": [
            "https://fhir.nhs.uk/STU3/StructureDefinition/CareConnect-GPC-MedicationRequest-1"
          ]
        },
        "extension": [
          {
            "url": "https://fhir.nhs.uk/STU3/StructureDefinition/Extension-CareConnect-GPC-PrescriptionType-1",
            "valueCodeableConcept": {
              "coding": [
                {
                  "system": "https://fhir.nhs.uk/STU3/CodeSystem/CareConnect-PrescriptionType-1",
                  "code": "repeat",
                  "display": "Repeat"
                }
              ]
            }
          }
        ],
        "identifier": [
          {
            "system": "https://fhir.nhs.uk/Id/cross-care-setting-identifier",
            "value": "cb5c85a1-5867-11eb-a7e5-00505692d4aa"
          }
        ],
        "basedOn": [
          {
            "reference": "MedicationRequest/56"
          }
        ],
        "groupIdentifier": {
          "value": "M-2c"
        },
        "status": "completed",
        "intent": "order",
        "medicationReference": {
          "reference": "Medication/23"
        },
        "subject": {
          "reference": "Patient/2"
        },
        "authoredOn": "2017-11-22T00:00:00+00:00",
        "recorder": {
          "reference": "Practitioner/1"
        },
        "dosageInstruction": [
          {
            "text": "1 tablet a day",
            "patientInstruction": "Morning"
          }
        ],
        "dispenseRequest": {
          "validityPeriod": {
            "start": "2017-12-20T00:00:00+00:00",
            "end": "2018-01-16T00:00:00+00:00"
          },
          "quantity": {
            "extension": [
              {
                "url": "https://fhir.nhs.uk/STU3/StructureDefinition/Extension-CareConnect-GPC-MedicationQuantityText-1",
                "valueString": "28"
              }
            ]
          },
          "expectedSupplyDuration": {
            "value": 28,
            "unit": "day",
            "system": "http://unitsofmeasure.org",
            "code": "d"
          },
          "performer": {
            "reference": "Organization/1"
          }
        }
      }
    },
    {
      "resource": {
        "resourceType": "MedicationRequest",
        "id": "59",
        "meta": {
          "profile": [
            "https://fhir.nhs.uk/STU3/StructureDefinition/CareConnect-GPC-MedicationRequest-1"
          ]
        },
        "extension": [
          {
            "url": "https://fhir.nhs.uk/STU3/StructureDefinition/Extension-CareConnect-GPC-PrescriptionType-1",
            "valueCodeableConcept": {
              "coding": [
                {
                  "system": "https://fhir.nhs.uk/STU3/CodeSystem/CareConnect-PrescriptionType-1",
                  "code": "repeat",
                  "display": "Repeat"
                }
              ]
            }
          }
        ],
        "identifier": [
          {
            "system": "https://fhir.nhs.uk/Id/cross-care-setting-identifier",
            "value": "cb5c8626-5867-11eb-a7e5-00505692d4aa"
          }
        ],
        "basedOn": [
          {
            "reference": "MedicationRequest/56"
          }
        ],
        "groupIdentifier": {
          "value": "M-2c"
        },
        "status": "completed",
        "intent": "order",
        "medicationReference": {
          "reference": "Medication/23"
        },
        "subject": {
          "reference": "Patient/2"
        },
        "authoredOn": "2017-11-22T00:00:00+00:00",
        "recorder": {
          "reference": "Practitioner/1"
        },
        "dosageInstruction": [
          {
            "text": "1 tablet a day",
            "patientInstruction": "Morning"
          }
        ],
        "dispenseRequest": {
          "validityPeriod": {
            "start": "2018-01-17T00:00:00+00:00",
            "end": "2018-02-13T00:00:00+00:00"
          },
          "quantity": {
            "extension": [
              {
                "url": "https://fhir.nhs.uk/STU3/StructureDefinition/Extension-CareConnect-GPC-MedicationQuantityText-1",
                "valueString": "28"
              }
            ]
          },
          "expectedSupplyDuration": {
            "value": 28,
            "unit": "day",
            "system": "http://unitsofmeasure.org",
            "code": "d"
          },
          "performer": {
            "reference": "Organization/1"
          }
        }
      }
    },
    {
      "resource": {
        "resourceType": "MedicationRequest",
        "id": "60",
        "meta": {
          "profile": [
            "https://fhir.nhs.uk/STU3/StructureDefinition/CareConnect-GPC-MedicationRequest-1"
          ]
        },
        "extension": [
          {
            "url": "https://fhir.nhs.uk/STU3/StructureDefinition/Extension-CareConnect-GPC-PrescriptionType-1",
            "valueCodeableConcept": {
              "coding": [
                {
                  "system": "https://fhir.nhs.uk/STU3/CodeSystem/CareConnect-PrescriptionType-1",
                  "code": "repeat",
                  "display": "Repeat"
                }
              ]
            }
          }
        ],
        "identifier": [
          {
            "system": "https://fhir.nhs.uk/Id/cross-care-setting-identifier",
            "value": "cb5c86a7-5867-11eb-a7e5-00505692d4aa"
          }
        ],
        "basedOn": [
          {
            "reference": "MedicationRequest/56"
          }
        ],
        "groupIdentifier": {
          "value": "M-2c"
        },
        "status": "completed",
        "intent": "order",
        "medicationReference": {
          "reference": "Medication/23"
        },
        "subject": {
          "reference": "Patient/2"
        },
        "authoredOn": "2017-11-22T00:00:00+00:00",
        "recorder": {
          "reference": "Practitioner/1"
        },
        "dosageInstruction": [
          {
            "text": "1 tablet a day",
            "patientInstruction": "Morning"
          }
        ],
        "dispenseRequest": {
          "validityPeriod": {
            "start": "2018-02-14T00:00:00+00:00",
            "end": "2018-03-13T00:00:00+00:00"
          },
          "quantity": {
            "extension": [
              {
                "url": "https://fhir.nhs.uk/STU3/StructureDefinition/Extension-CareConnect-GPC-MedicationQuantityText-1",
                "valueString": "28"
              }
            ]
          },
          "expectedSupplyDuration": {
            "value": 28,
            "unit": "day",
            "system": "http://unitsofmeasure.org",
            "code": "d"
          },
          "performer": {
            "reference": "Organization/1"
          }
        }
      }
    },
    {
      "resource": {
        "resourceType": "MedicationRequest",
        "id": "61",
        "meta": {
          "profile": [
            "https://fhir.nhs.uk/STU3/StructureDefinition/CareConnect-GPC-MedicationRequest-1"
          ]
        },
        "extension": [
          {
            "url": "https://fhir.nhs.uk/STU3/StructureDefinition/Extension-CareConnect-GPC-PrescriptionType-1",
            "valueCodeableConcept": {
              "coding": [
                {
                  "system": "https://fhir.nhs.uk/STU3/CodeSystem/CareConnect-PrescriptionType-1",
                  "code": "repeat",
                  "display": "Repeat"
                }
              ]
            }
          }
        ],
        "identifier": [
          {
            "system": "https://fhir.nhs.uk/Id/cross-care-setting-identifier",
            "value": "cb5c8724-5867-11eb-a7e5-00505692d4aa"
          }
        ],
        "basedOn": [
          {
            "reference": "MedicationRequest/56"
          }
        ],
        "groupIdentifier": {
          "value": "M-2c"
        },
        "status": "completed",
        "intent": "order",
        "medicationReference": {
          "reference": "Medication/23"
        },
        "subject": {
          "reference": "Patient/2"
        },
        "authoredOn": "2017-11-22T00:00:00+00:00",
        "recorder": {
          "reference": "Practitioner/1"
        },
        "dosageInstruction": [
          {
            "text": "1 tablet a day",
            "patientInstruction": "Morning"
          }
        ],
        "dispenseRequest": {
          "validityPeriod": {
            "start": "2018-03-14T00:00:00+00:00",
            "end": "2018-04-10T00:00:00+01:00"
          },
          "quantity": {
            "extension": [
              {
                "url": "https://fhir.nhs.uk/STU3/StructureDefinition/Extension-CareConnect-GPC-MedicationQuantityText-1",
                "valueString": "28"
              }
            ]
          },
          "expectedSupplyDuration": {
            "value": 28,
            "unit": "day",
            "system": "http://unitsofmeasure.org",
            "code": "d"
          },
          "performer": {
            "reference": "Organization/1"
          }
        }
      }
    },
    {
      "resource": {
        "resourceType": "MedicationRequest",
        "id": "62",
        "meta": {
          "profile": [
            "https://fhir.nhs.uk/STU3/StructureDefinition/CareConnect-GPC-MedicationRequest-1"
          ]
        },
        "extension": [
          {
            "url": "https://fhir.nhs.uk/STU3/StructureDefinition/Extension-CareConnect-GPC-PrescriptionType-1",
            "valueCodeableConcept": {
              "coding": [
                {
                  "system": "https://fhir.nhs.uk/STU3/CodeSystem/CareConnect-PrescriptionType-1",
                  "code": "repeat",
                  "display": "Repeat"
                }
              ]
            }
          }
        ],
        "identifier": [
          {
            "system": "https://fhir.nhs.uk/Id/cross-care-setting-identifier",
            "value": "cb5c87a1-5867-11eb-a7e5-00505692d4aa"
          }
        ],
        "basedOn": [
          {
            "reference": "MedicationRequest/56"
          }
        ],
        "groupIdentifier": {
          "value": "M-2c"
        },
        "status": "completed",
        "intent": "order",
        "medicationReference": {
          "reference": "Medication/23"
        },
        "subject": {
          "reference": "Patient/2"
        },
        "authoredOn": "2017-11-22T00:00:00+00:00",
        "recorder": {
          "reference": "Practitioner/1"
        },
        "dosageInstruction": [
          {
            "text": "1 tablet a day",
            "patientInstruction": "Morning"
          }
        ],
        "dispenseRequest": {
          "validityPeriod": {
            "start": "2018-04-11T00:00:00+01:00",
            "end": "2018-05-08T00:00:00+01:00"
          },
          "quantity": {
            "extension": [
              {
                "url": "https://fhir.nhs.uk/STU3/StructureDefinition/Extension-CareConnect-GPC-MedicationQuantityText-1",
                "valueString": "28"
              }
            ]
          },
          "expectedSupplyDuration": {
            "value": 28,
            "unit": "day",
            "system": "http://unitsofmeasure.org",
            "code": "d"
          },
          "performer": {
            "reference": "Organization/1"
          }
        }
      }
    },
    {
      "resource": {
        "resourceType": "MedicationRequest",
        "id": "63",
        "meta": {
          "profile": [
            "https://fhir.nhs.uk/STU3/StructureDefinition/CareConnect-GPC-MedicationRequest-1"
          ]
        },
        "extension": [
          {
            "url": "https://fhir.nhs.uk/STU3/StructureDefinition/Extension-CareConnect-GPC-PrescriptionType-1",
            "valueCodeableConcept": {
              "coding": [
                {
                  "system": "https://fhir.nhs.uk/STU3/CodeSystem/CareConnect-PrescriptionType-1",
                  "code": "repeat",
                  "display": "Repeat"
                }
              ]
            }
          }
        ],
        "identifier": [
          {
            "system": "https://fhir.nhs.uk/Id/cross-care-setting-identifier",
            "value": "cb5c881d-5867-11eb-a7e5-00505692d4aa"
          }
        ],
        "basedOn": [
          {
            "reference": "MedicationRequest/56"
          }
        ],
        "groupIdentifier": {
          "value": "M-2c"
        },
        "status": "completed",
        "intent": "order",
        "medicationReference": {
          "reference": "Medication/23"
        },
        "subject": {
          "reference": "Patient/2"
        },
        "authoredOn": "2017-11-22T00:00:00+00:00",
        "recorder": {
          "reference": "Practitioner/1"
        },
        "dosageInstruction": [
          {
            "text": "1 tablet a day",
            "patientInstruction": "Morning"
          }
        ],
        "dispenseRequest": {
          "validityPeriod": {
            "start": "2018-05-09T00:00:00+01:00",
            "end": "2018-06-05T00:00:00+01:00"
          },
          "quantity": {
            "extension": [
              {
                "url": "https://fhir.nhs.uk/STU3/StructureDefinition/Extension-CareConnect-GPC-MedicationQuantityText-1",
                "valueString": "28"
              }
            ]
          },
          "expectedSupplyDuration": {
            "value": 28,
            "unit": "day",
            "system": "http://unitsofmeasure.org",
            "code": "d"
          },
          "performer": {
            "reference": "Organization/1"
          }
        }
      }
    },
    {
      "resource": {
        "resourceType": "MedicationRequest",
        "id": "64",
        "meta": {
          "profile": [
            "https://fhir.nhs.uk/STU3/StructureDefinition/CareConnect-GPC-MedicationRequest-1"
          ]
        },
        "extension": [
          {
            "url": "https://fhir.nhs.uk/STU3/StructureDefinition/Extension-CareConnect-GPC-PrescriptionType-1",
            "valueCodeableConcept": {
              "coding": [
                {
                  "system": "https://fhir.nhs.uk/STU3/CodeSystem/CareConnect-PrescriptionType-1",
                  "code": "repeat",
                  "display": "Repeat"
                }
              ]
            }
          }
        ],
        "identifier": [
          {
            "system": "https://fhir.nhs.uk/Id/cross-care-setting-identifier",
            "value": "cb5c88ef-5867-11eb-a7e5-00505692d4aa"
          }
        ],
        "basedOn": [
          {
            "reference": "MedicationRequest/56"
          }
        ],
        "groupIdentifier": {
          "value": "M-2c"
        },
        "status": "completed",
        "intent": "order",
        "medicationReference": {
          "reference": "Medication/23"
        },
        "subject": {
          "reference": "Patient/2"
        },
        "authoredOn": "2017-11-22T00:00:00+00:00",
        "recorder": {
          "reference": "Practitioner/1"
        },
        "dosageInstruction": [
          {
            "text": "1 tablet a day",
            "patientInstruction": "Morning"
          }
        ],
        "dispenseRequest": {
          "validityPeriod": {
            "start": "2018-06-06T00:00:00+01:00",
            "end": "2018-07-03T00:00:00+01:00"
          },
          "quantity": {
            "extension": [
              {
                "url": "https://fhir.nhs.uk/STU3/StructureDefinition/Extension-CareConnect-GPC-MedicationQuantityText-1",
                "valueString": "28"
              }
            ]
          },
          "expectedSupplyDuration": {
            "value": 28,
            "unit": "day",
            "system": "http://unitsofmeasure.org",
            "code": "d"
          },
          "performer": {
            "reference": "Organization/1"
          }
        }
      }
    },
    {
      "resource": {
        "resourceType": "MedicationRequest",
        "id": "65",
        "meta": {
          "profile": [
            "https://fhir.nhs.uk/STU3/StructureDefinition/CareConnect-GPC-MedicationRequest-1"
          ]
        },
        "extension": [
          {
            "url": "https://fhir.nhs.uk/STU3/StructureDefinition/Extension-CareConnect-GPC-PrescriptionType-1",
            "valueCodeableConcept": {
              "coding": [
                {
                  "system": "https://fhir.nhs.uk/STU3/CodeSystem/CareConnect-PrescriptionType-1",
                  "code": "repeat",
                  "display": "Repeat"
                }
              ]
            }
          }
        ],
        "identifier": [
          {
            "system": "https://fhir.nhs.uk/Id/cross-care-setting-identifier",
            "value": "cb5c8970-5867-11eb-a7e5-00505692d4aa"
          }
        ],
        "basedOn": [
          {
            "reference": "MedicationRequest/56"
          }
        ],
        "groupIdentifier": {
          "value": "M-2c"
        },
        "status": "completed",
        "intent": "order",
        "medicationReference": {
          "reference": "Medication/23"
        },
        "subject": {
          "reference": "Patient/2"
        },
        "authoredOn": "2017-11-22T00:00:00+00:00",
        "recorder": {
          "reference": "Practitioner/1"
        },
        "dosageInstruction": [
          {
            "text": "1 tablet a day",
            "patientInstruction": "Morning"
          }
        ],
        "dispenseRequest": {
          "validityPeriod": {
            "start": "2018-07-04T00:00:00+01:00",
            "end": "2018-07-31T00:00:00+01:00"
          },
          "quantity": {
            "extension": [
              {
                "url": "https://fhir.nhs.uk/STU3/StructureDefinition/Extension-CareConnect-GPC-MedicationQuantityText-1",
                "valueString": "28"
              }
            ]
          },
          "expectedSupplyDuration": {
            "value": 28,
            "unit": "day",
            "system": "http://unitsofmeasure.org",
            "code": "d"
          },
          "performer": {
            "reference": "Organization/1"
          }
        }
      }
    },
    {
      "resource": {
        "resourceType": "MedicationRequest",
        "id": "66",
        "meta": {
          "profile": [
            "https://fhir.nhs.uk/STU3/StructureDefinition/CareConnect-GPC-MedicationRequest-1"
          ]
        },
        "extension": [
          {
            "url": "https://fhir.nhs.uk/STU3/StructureDefinition/Extension-CareConnect-GPC-PrescriptionType-1",
            "valueCodeableConcept": {
              "coding": [
                {
                  "system": "https://fhir.nhs.uk/STU3/CodeSystem/CareConnect-PrescriptionType-1",
                  "code": "repeat",
                  "display": "Repeat"
                }
              ]
            }
          }
        ],
        "identifier": [
          {
            "system": "https://fhir.nhs.uk/Id/cross-care-setting-identifier",
            "value": "cb5c89ec-5867-11eb-a7e5-00505692d4aa"
          }
        ],
        "basedOn": [
          {
            "reference": "MedicationRequest/56"
          }
        ],
        "groupIdentifier": {
          "value": "M-2c"
        },
        "status": "completed",
        "intent": "order",
        "medicationReference": {
          "reference": "Medication/23"
        },
        "subject": {
          "reference": "Patient/2"
        },
        "authoredOn": "2017-11-22T00:00:00+00:00",
        "recorder": {
          "reference": "Practitioner/1"
        },
        "dosageInstruction": [
          {
            "text": "1 tablet a day",
            "patientInstruction": "Morning"
          }
        ],
        "dispenseRequest": {
          "validityPeriod": {
            "start": "2018-08-01T00:00:00+01:00",
            "end": "2018-08-28T00:00:00+01:00"
          },
          "quantity": {
            "extension": [
              {
                "url": "https://fhir.nhs.uk/STU3/StructureDefinition/Extension-CareConnect-GPC-MedicationQuantityText-1",
                "valueString": "28"
              }
            ]
          },
          "expectedSupplyDuration": {
            "value": 28,
            "unit": "day",
            "system": "http://unitsofmeasure.org",
            "code": "d"
          },
          "performer": {
            "reference": "Organization/1"
          }
        }
      }
    },
    {
      "resource": {
        "resourceType": "MedicationRequest",
        "id": "67",
        "meta": {
          "profile": [
            "https://fhir.nhs.uk/STU3/StructureDefinition/CareConnect-GPC-MedicationRequest-1"
          ]
        },
        "extension": [
          {
            "url": "https://fhir.nhs.uk/STU3/StructureDefinition/Extension-CareConnect-GPC-PrescriptionType-1",
            "valueCodeableConcept": {
              "coding": [
                {
                  "system": "https://fhir.nhs.uk/STU3/CodeSystem/CareConnect-PrescriptionType-1",
                  "code": "repeat",
                  "display": "Repeat"
                }
              ]
            }
          }
        ],
        "identifier": [
          {
            "system": "https://fhir.nhs.uk/Id/cross-care-setting-identifier",
            "value": "cb5c8a65-5867-11eb-a7e5-00505692d4aa"
          }
        ],
        "basedOn": [
          {
            "reference": "MedicationRequest/56"
          }
        ],
        "groupIdentifier": {
          "value": "M-2c"
        },
        "status": "completed",
        "intent": "order",
        "medicationReference": {
          "reference": "Medication/23"
        },
        "subject": {
          "reference": "Patient/2"
        },
        "authoredOn": "2017-11-22T00:00:00+00:00",
        "recorder": {
          "reference": "Practitioner/1"
        },
        "dosageInstruction": [
          {
            "text": "1 tablet a day",
            "patientInstruction": "Morning"
          }
        ],
        "dispenseRequest": {
          "validityPeriod": {
            "start": "2018-08-29T00:00:00+01:00",
            "end": "2018-09-25T00:00:00+01:00"
          },
          "quantity": {
            "extension": [
              {
                "url": "https://fhir.nhs.uk/STU3/StructureDefinition/Extension-CareConnect-GPC-MedicationQuantityText-1",
                "valueString": "28"
              }
            ]
          },
          "expectedSupplyDuration": {
            "value": 28,
            "unit": "day",
            "system": "http://unitsofmeasure.org",
            "code": "d"
          },
          "performer": {
            "reference": "Organization/1"
          }
        }
      }
    },
    {
      "resource": {
        "resourceType": "MedicationStatement",
        "id": "12",
        "meta": {
          "profile": [
            "https://fhir.nhs.uk/STU3/StructureDefinition/CareConnect-GPC-MedicationStatement-1"
          ]
        },
        "extension": [
          {
            "url": "https://fhir.nhs.uk/STU3/StructureDefinition/Extension-CareConnect-GPC-MedicationStatementLastIssueDate-1",
            "valueDateTime": "2018-08-27"
          },
          {
            "url": "https://fhir.nhs.uk/STU3/StructureDefinition/Extension-CareConnect-GPC-PrescribingAgency-1",
            "valueCodeableConcept": {
              "coding": [
                {
                  "system": "https://fhir.nhs.uk/STU3/CodeSystem/CareConnect-PrescribingAgency-1",
                  "code": "prescribed-at-gp-practice",
                  "display": "Prescribed at GP practice"
                }
              ]
            }
          },
          {
            "url": "https://fhir.hl7.org.uk/STU3/StructureDefinition/Extension-CareConnect-MedicationStatementDosageLastChanged-1",
            "valueDateTime": "2018-08-27T00:00:00+01:00"
          }
        ],
        "identifier": [
          {
            "system": "https://fhir.nhs.uk/Id/cross-care-setting-identifier",
            "value": "cb69b952-5867-11eb-a7e5-00505692d4aa"
          }
        ],
        "basedOn": [
          {
            "reference": "MedicationRequest/68"
          }
        ],
        "status": "active",
        "medicationReference": {
          "reference": "Medication/24"
        },
        "effectivePeriod": {
          "start": "2018-01-15T00:00:00+00:00",
          "end": "2018-12-14T00:00:00+00:00"
        },
        "dateAsserted": "2018-01-15T00:00:00+00:00",
        "subject": {
          "reference": "Patient/2"
        },
        "taken": "unk",
        "dosage": [
          {
            "text": "As directed",
            "patientInstruction": "Night/nocte"
          }
        ]
      }
    },
    {
      "resource": {
        "resourceType": "Medication",
        "id": "24",
        "meta": {
          "profile": [
            "https://fhir.nhs.uk/STU3/StructureDefinition/CareConnect-GPC-Medication-1"
          ]
        },
        "code": {
          "coding": [
            {
              "system": "http://snomed.info/sct",
              "code": "11933011000001106",
              "display": "Lantus 100units/ml solution for injections 3ml pre-filled solostar pen"
            },
            {
              "system": "https://fhir.hl7.org.uk/Id/multilex-drug-codes",
              "code": "15577001",
              "display": "Lantus 100units/ml solution for injection 3ml pre-filled SoloStar pen (Sanofi)",
              "userSelected": true
            }
          ]
        }
      }
    },
    {
      "resource": {
        "resourceType": "MedicationRequest",
        "id": "68",
        "meta": {
          "profile": [
            "https://fhir.nhs.uk/STU3/StructureDefinition/CareConnect-GPC-MedicationRequest-1"
          ]
        },
        "extension": [
          {
            "url": "https://fhir.nhs.uk/STU3/StructureDefinition/Extension-CareConnect-GPC-MedicationRepeatInformation-1",
            "extension": [
              {
                "url": "numberOfRepeatPrescriptionsAllowed",
                "valuePositiveInt": 12
              },
              {
                "url": "numberOfRepeatPrescriptionsIssued",
                "valuePositiveInt": 9
              }
            ]
          },
          {
            "url": "https://fhir.nhs.uk/STU3/StructureDefinition/Extension-CareConnect-GPC-PrescriptionType-1",
            "valueCodeableConcept": {
              "coding": [
                {
                  "system": "https://fhir.nhs.uk/STU3/CodeSystem/CareConnect-PrescriptionType-1",
                  "code": "repeat",
                  "display": "Repeat"
                }
              ]
            }
          }
        ],
        "identifier": [
          {
            "system": "https://fhir.nhs.uk/Id/cross-care-setting-identifier",
            "value": "cb5c8bfe-5867-11eb-a7e5-00505692d4aa"
          }
        ],
        "groupIdentifier": {
          "value": "M-1"
        },
        "status": "active",
        "intent": "plan",
        "medicationReference": {
          "reference": "Medication/24"
        },
        "subject": {
          "reference": "Patient/2"
        },
        "authoredOn": "2018-01-15T00:00:00+00:00",
        "recorder": {
          "reference": "Practitioner/1"
        },
        "dosageInstruction": [
          {
            "text": "As directed",
            "patientInstruction": "Night/Nocte"
          }
        ],
        "dispenseRequest": {
          "validityPeriod": {
            "start": "2018-01-15T00:00:00+00:00",
            "end": "2018-12-17T00:00:00+00:00"
          },
          "quantity": {
            "extension": [
              {
                "url": "https://fhir.nhs.uk/STU3/StructureDefinition/Extension-CareConnect-GPC-MedicationQuantityText-1",
                "valueString": "5 pens"
              }
            ]
          },
          "expectedSupplyDuration": {
            "value": 28,
            "unit": "day",
            "system": "http://unitsofmeasure.org",
            "code": "d"
          },
          "performer": {
            "reference": "Organization/1"
          }
        }
      }
    },
    {
      "resource": {
        "resourceType": "MedicationRequest",
        "id": "69",
        "meta": {
          "profile": [
            "https://fhir.nhs.uk/STU3/StructureDefinition/CareConnect-GPC-MedicationRequest-1"
          ]
        },
        "extension": [
          {
            "url": "https://fhir.nhs.uk/STU3/StructureDefinition/Extension-CareConnect-GPC-PrescriptionType-1",
            "valueCodeableConcept": {
              "coding": [
                {
                  "system": "https://fhir.nhs.uk/STU3/CodeSystem/CareConnect-PrescriptionType-1",
                  "code": "repeat",
                  "display": "Repeat"
                }
              ]
            }
          }
        ],
        "identifier": [
          {
            "system": "https://fhir.nhs.uk/Id/cross-care-setting-identifier",
            "value": "cb5c8c88-5867-11eb-a7e5-00505692d4aa"
          }
        ],
        "basedOn": [
          {
            "reference": "MedicationRequest/68"
          }
        ],
        "groupIdentifier": {
          "value": "M-1"
        },
        "status": "completed",
        "intent": "order",
        "medicationReference": {
          "reference": "Medication/24"
        },
        "subject": {
          "reference": "Patient/2"
        },
        "authoredOn": "2018-01-15T00:00:00+00:00",
        "recorder": {
          "reference": "Practitioner/1"
        },
        "dosageInstruction": [
          {
            "text": "As directed",
            "patientInstruction": "Night/Nocte"
          }
        ],
        "dispenseRequest": {
          "validityPeriod": {
            "start": "2018-01-15T00:00:00+00:00",
            "end": "2018-02-11T00:00:00+00:00"
          },
          "quantity": {
            "extension": [
              {
                "url": "https://fhir.nhs.uk/STU3/StructureDefinition/Extension-CareConnect-GPC-MedicationQuantityText-1",
                "valueString": "5 pens"
              }
            ]
          },
          "expectedSupplyDuration": {
            "value": 28,
            "unit": "day",
            "system": "http://unitsofmeasure.org",
            "code": "d"
          },
          "performer": {
            "reference": "Organization/1"
          }
        }
      }
    },
    {
      "resource": {
        "resourceType": "MedicationRequest",
        "id": "70",
        "meta": {
          "profile": [
            "https://fhir.nhs.uk/STU3/StructureDefinition/CareConnect-GPC-MedicationRequest-1"
          ]
        },
        "extension": [
          {
            "url": "https://fhir.nhs.uk/STU3/StructureDefinition/Extension-CareConnect-GPC-PrescriptionType-1",
            "valueCodeableConcept": {
              "coding": [
                {
                  "system": "https://fhir.nhs.uk/STU3/CodeSystem/CareConnect-PrescriptionType-1",
                  "code": "repeat",
                  "display": "Repeat"
                }
              ]
            }
          }
        ],
        "identifier": [
          {
            "system": "https://fhir.nhs.uk/Id/cross-care-setting-identifier",
            "value": "cb5c8d05-5867-11eb-a7e5-00505692d4aa"
          }
        ],
        "basedOn": [
          {
            "reference": "MedicationRequest/68"
          }
        ],
        "groupIdentifier": {
          "value": "M-1"
        },
        "status": "completed",
        "intent": "order",
        "medicationReference": {
          "reference": "Medication/24"
        },
        "subject": {
          "reference": "Patient/2"
        },
        "authoredOn": "2018-01-15T00:00:00+00:00",
        "recorder": {
          "reference": "Practitioner/1"
        },
        "dosageInstruction": [
          {
            "text": "As directed",
            "patientInstruction": "Night/Nocte"
          }
        ],
        "dispenseRequest": {
          "validityPeriod": {
            "start": "2018-02-12T00:00:00+00:00",
            "end": "2018-03-11T00:00:00+00:00"
          },
          "quantity": {
            "extension": [
              {
                "url": "https://fhir.nhs.uk/STU3/StructureDefinition/Extension-CareConnect-GPC-MedicationQuantityText-1",
                "valueString": "5 pens"
              }
            ]
          },
          "expectedSupplyDuration": {
            "value": 28,
            "unit": "day",
            "system": "http://unitsofmeasure.org",
            "code": "d"
          },
          "performer": {
            "reference": "Organization/1"
          }
        }
      }
    },
    {
      "resource": {
        "resourceType": "MedicationRequest",
        "id": "71",
        "meta": {
          "profile": [
            "https://fhir.nhs.uk/STU3/StructureDefinition/CareConnect-GPC-MedicationRequest-1"
          ]
        },
        "extension": [
          {
            "url": "https://fhir.nhs.uk/STU3/StructureDefinition/Extension-CareConnect-GPC-PrescriptionType-1",
            "valueCodeableConcept": {
              "coding": [
                {
                  "system": "https://fhir.nhs.uk/STU3/CodeSystem/CareConnect-PrescriptionType-1",
                  "code": "repeat",
                  "display": "Repeat"
                }
              ]
            }
          }
        ],
        "identifier": [
          {
            "system": "https://fhir.nhs.uk/Id/cross-care-setting-identifier",
            "value": "cb5c8d8a-5867-11eb-a7e5-00505692d4aa"
          }
        ],
        "basedOn": [
          {
            "reference": "MedicationRequest/68"
          }
        ],
        "groupIdentifier": {
          "value": "M-1"
        },
        "status": "completed",
        "intent": "order",
        "medicationReference": {
          "reference": "Medication/24"
        },
        "subject": {
          "reference": "Patient/2"
        },
        "authoredOn": "2018-01-15T00:00:00+00:00",
        "recorder": {
          "reference": "Practitioner/1"
        },
        "dosageInstruction": [
          {
            "text": "As directed",
            "patientInstruction": "Night/Nocte"
          }
        ],
        "dispenseRequest": {
          "validityPeriod": {
            "start": "2018-03-12T00:00:00+00:00",
            "end": "2018-04-08T00:00:00+01:00"
          },
          "quantity": {
            "extension": [
              {
                "url": "https://fhir.nhs.uk/STU3/StructureDefinition/Extension-CareConnect-GPC-MedicationQuantityText-1",
                "valueString": "5 pens"
              }
            ]
          },
          "expectedSupplyDuration": {
            "value": 28,
            "unit": "day",
            "system": "http://unitsofmeasure.org",
            "code": "d"
          },
          "performer": {
            "reference": "Organization/1"
          }
        }
      }
    },
    {
      "resource": {
        "resourceType": "MedicationRequest",
        "id": "72",
        "meta": {
          "profile": [
            "https://fhir.nhs.uk/STU3/StructureDefinition/CareConnect-GPC-MedicationRequest-1"
          ]
        },
        "extension": [
          {
            "url": "https://fhir.nhs.uk/STU3/StructureDefinition/Extension-CareConnect-GPC-PrescriptionType-1",
            "valueCodeableConcept": {
              "coding": [
                {
                  "system": "https://fhir.nhs.uk/STU3/CodeSystem/CareConnect-PrescriptionType-1",
                  "code": "repeat",
                  "display": "Repeat"
                }
              ]
            }
          }
        ],
        "identifier": [
          {
            "system": "https://fhir.nhs.uk/Id/cross-care-setting-identifier",
            "value": "cb5c8e4a-5867-11eb-a7e5-00505692d4aa"
          }
        ],
        "basedOn": [
          {
            "reference": "MedicationRequest/68"
          }
        ],
        "groupIdentifier": {
          "value": "M-1"
        },
        "status": "completed",
        "intent": "order",
        "medicationReference": {
          "reference": "Medication/24"
        },
        "subject": {
          "reference": "Patient/2"
        },
        "authoredOn": "2018-01-15T00:00:00+00:00",
        "recorder": {
          "reference": "Practitioner/1"
        },
        "dosageInstruction": [
          {
            "text": "As directed",
            "patientInstruction": "Night/Nocte"
          }
        ],
        "dispenseRequest": {
          "validityPeriod": {
            "start": "2018-04-09T00:00:00+01:00",
            "end": "2018-05-06T00:00:00+01:00"
          },
          "quantity": {
            "extension": [
              {
                "url": "https://fhir.nhs.uk/STU3/StructureDefinition/Extension-CareConnect-GPC-MedicationQuantityText-1",
                "valueString": "5 pens"
              }
            ]
          },
          "expectedSupplyDuration": {
            "value": 28,
            "unit": "day",
            "system": "http://unitsofmeasure.org",
            "code": "d"
          },
          "performer": {
            "reference": "Organization/1"
          }
        }
      }
    },
    {
      "resource": {
        "resourceType": "MedicationRequest",
        "id": "73",
        "meta": {
          "profile": [
            "https://fhir.nhs.uk/STU3/StructureDefinition/CareConnect-GPC-MedicationRequest-1"
          ]
        },
        "extension": [
          {
            "url": "https://fhir.nhs.uk/STU3/StructureDefinition/Extension-CareConnect-GPC-PrescriptionType-1",
            "valueCodeableConcept": {
              "coding": [
                {
                  "system": "https://fhir.nhs.uk/STU3/CodeSystem/CareConnect-PrescriptionType-1",
                  "code": "repeat",
                  "display": "Repeat"
                }
              ]
            }
          }
        ],
        "identifier": [
          {
            "system": "https://fhir.nhs.uk/Id/cross-care-setting-identifier",
            "value": "cb5c8ecb-5867-11eb-a7e5-00505692d4aa"
          }
        ],
        "basedOn": [
          {
            "reference": "MedicationRequest/68"
          }
        ],
        "groupIdentifier": {
          "value": "M-1"
        },
        "status": "completed",
        "intent": "order",
        "medicationReference": {
          "reference": "Medication/24"
        },
        "subject": {
          "reference": "Patient/2"
        },
        "authoredOn": "2018-01-15T00:00:00+00:00",
        "recorder": {
          "reference": "Practitioner/1"
        },
        "dosageInstruction": [
          {
            "text": "As directed",
            "patientInstruction": "Night/Nocte"
          }
        ],
        "dispenseRequest": {
          "validityPeriod": {
            "start": "2018-05-07T00:00:00+01:00",
            "end": "2018-06-03T00:00:00+01:00"
          },
          "quantity": {
            "extension": [
              {
                "url": "https://fhir.nhs.uk/STU3/StructureDefinition/Extension-CareConnect-GPC-MedicationQuantityText-1",
                "valueString": "5 pens"
              }
            ]
          },
          "expectedSupplyDuration": {
            "value": 28,
            "unit": "day",
            "system": "http://unitsofmeasure.org",
            "code": "d"
          },
          "performer": {
            "reference": "Organization/1"
          }
        }
      }
    },
    {
      "resource": {
        "resourceType": "MedicationRequest",
        "id": "74",
        "meta": {
          "profile": [
            "https://fhir.nhs.uk/STU3/StructureDefinition/CareConnect-GPC-MedicationRequest-1"
          ]
        },
        "extension": [
          {
            "url": "https://fhir.nhs.uk/STU3/StructureDefinition/Extension-CareConnect-GPC-PrescriptionType-1",
            "valueCodeableConcept": {
              "coding": [
                {
                  "system": "https://fhir.nhs.uk/STU3/CodeSystem/CareConnect-PrescriptionType-1",
                  "code": "repeat",
                  "display": "Repeat"
                }
              ]
            }
          }
        ],
        "identifier": [
          {
            "system": "https://fhir.nhs.uk/Id/cross-care-setting-identifier",
            "value": "cb5c8f4c-5867-11eb-a7e5-00505692d4aa"
          }
        ],
        "basedOn": [
          {
            "reference": "MedicationRequest/68"
          }
        ],
        "groupIdentifier": {
          "value": "M-1"
        },
        "status": "completed",
        "intent": "order",
        "medicationReference": {
          "reference": "Medication/24"
        },
        "subject": {
          "reference": "Patient/2"
        },
        "authoredOn": "2018-01-15T00:00:00+00:00",
        "recorder": {
          "reference": "Practitioner/1"
        },
        "dosageInstruction": [
          {
            "text": "As directed",
            "patientInstruction": "Night/Nocte"
          }
        ],
        "dispenseRequest": {
          "validityPeriod": {
            "start": "2018-06-04T00:00:00+01:00",
            "end": "2018-07-01T00:00:00+01:00"
          },
          "quantity": {
            "extension": [
              {
                "url": "https://fhir.nhs.uk/STU3/StructureDefinition/Extension-CareConnect-GPC-MedicationQuantityText-1",
                "valueString": "5 pens"
              }
            ]
          },
          "expectedSupplyDuration": {
            "value": 28,
            "unit": "day",
            "system": "http://unitsofmeasure.org",
            "code": "d"
          },
          "performer": {
            "reference": "Organization/1"
          }
        }
      }
    },
    {
      "resource": {
        "resourceType": "MedicationRequest",
        "id": "75",
        "meta": {
          "profile": [
            "https://fhir.nhs.uk/STU3/StructureDefinition/CareConnect-GPC-MedicationRequest-1"
          ]
        },
        "extension": [
          {
            "url": "https://fhir.nhs.uk/STU3/StructureDefinition/Extension-CareConnect-GPC-PrescriptionType-1",
            "valueCodeableConcept": {
              "coding": [
                {
                  "system": "https://fhir.nhs.uk/STU3/CodeSystem/CareConnect-PrescriptionType-1",
                  "code": "repeat",
                  "display": "Repeat"
                }
              ]
            }
          }
        ],
        "identifier": [
          {
            "system": "https://fhir.nhs.uk/Id/cross-care-setting-identifier",
            "value": "cb5c8fc9-5867-11eb-a7e5-00505692d4aa"
          }
        ],
        "basedOn": [
          {
            "reference": "MedicationRequest/68"
          }
        ],
        "groupIdentifier": {
          "value": "M-1"
        },
        "status": "completed",
        "intent": "order",
        "medicationReference": {
          "reference": "Medication/24"
        },
        "subject": {
          "reference": "Patient/2"
        },
        "authoredOn": "2018-01-15T00:00:00+00:00",
        "recorder": {
          "reference": "Practitioner/1"
        },
        "dosageInstruction": [
          {
            "text": "As directed",
            "patientInstruction": "Night/Nocte"
          }
        ],
        "dispenseRequest": {
          "validityPeriod": {
            "start": "2018-07-02T00:00:00+01:00",
            "end": "2018-07-29T00:00:00+01:00"
          },
          "quantity": {
            "extension": [
              {
                "url": "https://fhir.nhs.uk/STU3/StructureDefinition/Extension-CareConnect-GPC-MedicationQuantityText-1",
                "valueString": "5 pens"
              }
            ]
          },
          "expectedSupplyDuration": {
            "value": 28,
            "unit": "day",
            "system": "http://unitsofmeasure.org",
            "code": "d"
          },
          "performer": {
            "reference": "Organization/1"
          }
        }
      }
    },
    {
      "resource": {
        "resourceType": "MedicationRequest",
        "id": "76",
        "meta": {
          "profile": [
            "https://fhir.nhs.uk/STU3/StructureDefinition/CareConnect-GPC-MedicationRequest-1"
          ]
        },
        "extension": [
          {
            "url": "https://fhir.nhs.uk/STU3/StructureDefinition/Extension-CareConnect-GPC-PrescriptionType-1",
            "valueCodeableConcept": {
              "coding": [
                {
                  "system": "https://fhir.nhs.uk/STU3/CodeSystem/CareConnect-PrescriptionType-1",
                  "code": "repeat",
                  "display": "Repeat"
                }
              ]
            }
          }
        ],
        "identifier": [
          {
            "system": "https://fhir.nhs.uk/Id/cross-care-setting-identifier",
            "value": "cb5c904a-5867-11eb-a7e5-00505692d4aa"
          }
        ],
        "basedOn": [
          {
            "reference": "MedicationRequest/68"
          }
        ],
        "groupIdentifier": {
          "value": "M-1"
        },
        "status": "completed",
        "intent": "order",
        "medicationReference": {
          "reference": "Medication/24"
        },
        "subject": {
          "reference": "Patient/2"
        },
        "authoredOn": "2018-01-15T00:00:00+00:00",
        "recorder": {
          "reference": "Practitioner/1"
        },
        "dosageInstruction": [
          {
            "text": "As directed",
            "patientInstruction": "Night/Nocte"
          }
        ],
        "dispenseRequest": {
          "validityPeriod": {
            "start": "2018-07-30T00:00:00+01:00",
            "end": "2018-08-26T00:00:00+01:00"
          },
          "quantity": {
            "extension": [
              {
                "url": "https://fhir.nhs.uk/STU3/StructureDefinition/Extension-CareConnect-GPC-MedicationQuantityText-1",
                "valueString": "5 pens"
              }
            ]
          },
          "expectedSupplyDuration": {
            "value": 28,
            "unit": "day",
            "system": "http://unitsofmeasure.org",
            "code": "d"
          },
          "performer": {
            "reference": "Organization/1"
          }
        }
      }
    },
    {
      "resource": {
        "resourceType": "MedicationRequest",
        "id": "77",
        "meta": {
          "profile": [
            "https://fhir.nhs.uk/STU3/StructureDefinition/CareConnect-GPC-MedicationRequest-1"
          ]
        },
        "extension": [
          {
            "url": "https://fhir.nhs.uk/STU3/StructureDefinition/Extension-CareConnect-GPC-PrescriptionType-1",
            "valueCodeableConcept": {
              "coding": [
                {
                  "system": "https://fhir.nhs.uk/STU3/CodeSystem/CareConnect-PrescriptionType-1",
                  "code": "repeat",
                  "display": "Repeat"
                }
              ]
            }
          }
        ],
        "identifier": [
          {
            "system": "https://fhir.nhs.uk/Id/cross-care-setting-identifier",
            "value": "cb5c90cb-5867-11eb-a7e5-00505692d4aa"
          }
        ],
        "basedOn": [
          {
            "reference": "MedicationRequest/68"
          }
        ],
        "groupIdentifier": {
          "value": "M-1"
        },
        "status": "completed",
        "intent": "order",
        "medicationReference": {
          "reference": "Medication/24"
        },
        "subject": {
          "reference": "Patient/2"
        },
        "authoredOn": "2018-01-15T00:00:00+00:00",
        "recorder": {
          "reference": "Practitioner/1"
        },
        "dosageInstruction": [
          {
            "text": "As directed",
            "patientInstruction": "Night/Nocte"
          }
        ],
        "dispenseRequest": {
          "validityPeriod": {
            "start": "2018-08-27T00:00:00+01:00",
            "end": "2018-09-24T00:00:00+01:00"
          },
          "quantity": {
            "extension": [
              {
                "url": "https://fhir.nhs.uk/STU3/StructureDefinition/Extension-CareConnect-GPC-MedicationQuantityText-1",
                "valueString": "5 pens"
              }
            ]
          },
          "expectedSupplyDuration": {
            "value": 28,
            "unit": "day",
            "system": "http://unitsofmeasure.org",
            "code": "d"
          },
          "performer": {
            "reference": "Organization/1"
          }
        }
      }
    },
    {
      "resource": {
        "resourceType": "List",
        "meta": {
          "profile": [
            "https://fhir.nhs.uk/STU3/StructureDefinition/CareConnect-GPC-List-1"
          ]
        },
        "status": "current",
        "mode": "snapshot",
        "title": "Problems - linked problems not relating to the primary query",
        "code": {
          "coding": [
            {
              "system": "https://fhir.hl7.org.uk/STU3/CodeSystem/GPConnect-SecondaryListValues-1",
              "code": "problems-linked-problems-not-relating-to-the-primary-query",
              "display": "Problems - linked problems not relating to the primary query"
            }
          ]
        },
        "subject": {
          "reference": "Patient/2"
        },
        "date": "2020-12-01T00:00:00+00:00",
        "orderedBy": {
          "coding": [
            {
              "system": "http://hl7.org/fhir/list-order",
              "code": "event-date"
            }
          ]
        },
        "entry": [
          {
            "item": {
              "reference": "Condition/MedicationProblem"
            }
          }
        ]
      }
    },
    {
      "resource": {
        "resourceType": "Condition",
        "id": "MedicationProblem",
        "meta": {
          "profile": [
            "https://fhir.nhs.uk/STU3/StructureDefinition/CareConnect-GPC-ProblemHeader-Condition-1"
          ]
        },
        "extension": [
          {
            "url": "https://fhir.hl7.org.uk/STU3/StructureDefinition/Extension-CareConnect-ProblemSignificance-1",
            "valueCode": "major"
          },
          {
            "url": "https://fhir.hl7.org.uk/STU3/StructureDefinition/Extension-CareConnect-RelatedClinicalContent-1",
            "valueReference": {
              "reference": "MedicationStatement/1"
            }
          },
          {
            "url": "https://fhir.hl7.org.uk/STU3/StructureDefinition/Extension-CareConnect-RelatedClinicalContent-1",
            "valueReference": {
              "reference": "MedicationRequest/20"
            }
          }
        ],
        "identifier": [
          {
            "system": "https://fhir.nhs.uk/Id/cross-care-setting-identifier",
            "value": "D06C0517-4D1C-11E3-A2DD-010000000161"
          }
        ],
        "clinicalStatus": "active",
        "category": [
          {
            "coding": [
              {
                "system": "http://hl7.org/fhir/condition-category",
                "code": "problem-list-item",
                "display": "Problem List Item"
              }
            ]
          }
        ],
        "code": {
          "coding": [
            {
              "system": "http://snomed.info/sct",
              "code": "231504006",
              "display": "Mixed anxiety and depressive disorder"
            }
          ],
          "text": "Anxiety with depression"
        },
        "subject": {
          "reference": "Patient/2"
        },
        "assertedDate": "2020-12-01T00:00:00+00:00",
        "asserter": {
          "reference": "Practitioner/1"
        }
      }
    },
    {
      "resource": {
        "resourceType": "Practitioner",
        "id": "1",
        "meta": {
          "versionId": "1469444400000",
          "lastUpdated": "2016-07-25T12:00:00.000+01:00",
          "profile": [
            "https://fhir.nhs.uk/STU3/StructureDefinition/CareConnect-GPC-Practitioner-1"
          ]
        },
        "extension": [
          {
            "url": "https://fhir.nhs.uk/STU3/StructureDefinition/Extension-CareConnect-GPC-NHSCommunication-1",
            "extension": [
              {
                "url": "language",
                "valueCodeableConcept": {
                  "coding": [
                    {
                      "system": "https://fhir.nhs.uk/STU3/CodeSystem/CareConnect-HumanLanguage-1",
                      "code": "de",
                      "display": "German"
                    }
                  ]
                }
              }
            ]
          },
          {
            "url": "https://fhir.nhs.uk/STU3/StructureDefinition/Extension-CareConnect-GPC-NHSCommunication-1",
            "extension": [
              {
                "url": "language",
                "valueCodeableConcept": {
                  "coding": [
                    {
                      "system": "https://fhir.nhs.uk/STU3/CodeSystem/CareConnect-HumanLanguage-1",
                      "code": "en",
                      "display": "English"
                    }
                  ]
                }
              }
            ]
          }
        ],
        "identifier": [
          {
            "system": "https://fhir.nhs.uk/Id/sds-user-id",
            "value": "G13579135"
          }
        ],
        "name": [
          {
            "use": "usual",
            "family": "Gilbert",
            "given": [
              "Nichole"
            ],
            "prefix": [
              "Miss"
            ]
          }
        ],
        "gender": "female"
      }
    },
    {
      "resource": {
        "resourceType": "Organization",
        "id": "1",
        "meta": {
          "versionId": "1469444400000",
          "lastUpdated": "2016-07-25T12:00:00.000+01:00",
          "profile": [
            "https://fhir.nhs.uk/STU3/StructureDefinition/CareConnect-GPC-Organization-1"
          ]
        },
        "identifier": [
          {
            "system": "https://fhir.nhs.uk/Id/ods-organization-code",
            "value": "GPC001"
          }
        ],
        "name": "GP Connect Demonstrator",
        "telecom": [
          {
            "system": "phone",
            "value": "12345678",
            "use": "work"
          }
        ],
        "address": [
          {
            "use": "work",
            "line": [
              "23 Main Street",
              "Pudsey"
            ],
            "city": "Leeds",
            "district": "West Yorkshire",
            "postalCode": "GPC 111"
          }
        ]
      }
    },
    {
      "resource": {
        "resourceType": "Organization",
        "id": "7",
        "meta": {
          "versionId": "1469444400000",
          "lastUpdated": "2016-07-25T12:00:00.000+01:00",
          "profile": [
            "https://fhir.nhs.uk/STU3/StructureDefinition/CareConnect-GPC-Organization-1"
          ]
        },
        "identifier": [
          {
            "system": "https://fhir.nhs.uk/Id/ods-organization-code",
            "value": "B82617"
          }
        ],
        "name": "COXWOLD SURGERY",
        "telecom": [
          {
            "system": "phone",
            "value": "12345678",
            "use": "work"
          }
        ],
        "address": [
          {
            "use": "work",
            "line": [
              "NHS NPFIT Test Data Manager",
              "Princes Exchange"
            ],
            "city": "Leeds",
            "district": "West Yorkshire",
            "postalCode": "LS1 4HY"
          }
        ]
      }
    }
  ]
}